Folder: OR-RG_ExpRes/1C (part 3)

File: Test1443.csv
Request Year:,2018,,,,,,,,,,,,
Test:,1443,,,,,,,,,,,,
Test Description:,,,,,,,,,,,,,
TestRegime Name:,Aging_Performance,,,,,,,,,,,,
TestRegime Suffix:,SHP_LC,,,,,,,,,,,,
TestRegime CellSize:,18650,,,,,,,,,,,,
TestRegime Version:,1,,,,,,,,,,,,
Number Of Cells:,1,,,,,,,,,,,,
LotID:,,,,,,,,,,,,,
Lot Description:,,,,,,,,,,,,,
Date Made:,1/21/2003 12:00 AM,,,,,,,,,,,,
Origin:,Other,,,,,,,,,,,,
Requestor:,Admin,,,,,,,,,,,,
Product ID:,Default product,,,,,,,,,,,,
Storage Temp:,R.T./AMB,,,,,,,,,,,,
Storage Delay:,0 days,,,,,,,,,,,,
Test Temp:,R.T./AMB,,,,,,,,,,,,
Start Time:,4/4/2018 3:22 PM,,,,,,,,,,,,
End Time:,4/4/2018 11:18 PM,,,,,,,,,,,,
Operator Instructions:,,,,,,,,,,,,,
Test,Cell,Rack,Shelf,Position,Cell ID,Step,Total Time (Seconds),Voltage (V),Current (A),Charge Capacity (mAh),Discharge Capacity (mAh),TC1 (Â°C),
1443,1,SBT2050,2,4,,0,1,3.35099,0,0,0,25.1,
1443,1,SBT2050,2,4,,0,187,3.35109,0,0,0,25,
1443,1,SBT2050,2,4,,1,373,2.49974,-1.6536,0,47.183,27.1,
1443,1,SBT2050,2,4,,1,559,2.49981,-0.9437,0,111.129,28.8,
1443,1,SBT2050,2,4,,1,745,2.49998,-0.6057,0,150.32,28.6,
1443,1,SBT2050,2,4,,1,931,2.499944,-0.40785,0,176.052,27.8,
1443,1,SBT2050,2,4,,1,1117,2.49986,-0.29006,0,193.839,27,
1443,1,SBT2050,2,4,,1,1303,2.49985,-0.21782,0,206.833,26.5,
1443,1,SBT2050,2,4,,1,1489,2.49985,-0.1678,0,216.721,26,
1443,1,SBT2050,2,4,,1,1675,2.500099,-0.13135,0,224.403,25.8,
1443,1,SBT2050,2,4,,1,1861,2.49978,-0.10397,0,230.446,25.6,
1443,1,SBT2050,2,4,,1,2047,2.49984,-0.08254,0,235.239,25.4,
1443,1,SBT2050,2,4,,1,2233,2.49997,-0.06482,0,239.034,25.2,
1443,1,SBT2050,2,4,,1,2419,2.49987,-0.0503,0,241.993,25.2,
1443,1,SBT2050,2,4,,1,2605,2.499932,-0.038834,0,244.28,25.2,
1443,1,SBT2050,2,4,,1,2791,2.50004,-0.029905,0,246.047,25.1,
1443,1,SBT2050,2,4,,1,2977,2.50013,-0.022756,0,247.398,25,
1443,1,SBT2050,2,4,,1,3163,2.49998,-0.017167,0,248.423,25,
1443,1,SBT2050,2,4,,1,3349,2.50004,-0.013572,0,249.215,24.9,
1443,1,SBT2050,2,4,,1,3535,2.49997,-0.011176,0,249.849,24.9,
1443,1,SBT2050,2,4,,2,3720,3.53918,2.9361,73.449,250.129,25.5,
1443,1,SBT2050,2,4,,2,3906,3.654472,2.9359,225.139,250.129,27.3,
1443,1,SBT2050,2,4,,2,4092,3.69931,2.9357,376.83,250.129,28.3,
1443,1,SBT2050,2,4,,2,4278,3.72741,2.9357,528.52,250.129,28.7,
1443,1,SBT2050,2,4,,2,4464,3.757394,2.9356,680.211,250.129,28.8,
1443,1,SBT2050,2,4,,2,4650,3.790122,2.9359,831.901,250.129,28.7,
1443,1,SBT2050,2,4,,2,4836,3.82576,2.9361,983.592,250.129,28.6,
1443,1,SBT2050,2,4,,2,5022,3.86693,2.9357,1135.282,250.129,28.7,
1443,1,SBT2050,2,4,,2,5208,3.91521,2.9359,1286.973,250.129,28.9,
1443,1,SBT2050,2,4,,2,5394,3.967222,2.9361,1438.663,250.129,29.1,
1443,1,SBT2050,2,4,,2,5580,4.0217,2.9352,1590.353,250.129,29.2,
1443,1,SBT2050,2,4,,2,5766,4.07697,2.9362,1742.043,250.129,29.3,
1443,1,SBT2050,2,4,,2,5952,4.1329,2.9358,1893.734,250.129,29.5,
1443,1,SBT2050,2,4,,2,6138,4.15011,2.3932,2034.58,250.129,29.4,
1443,1,SBT2050,2,4,,2,6324,4.1499,1.8345,2143.166,250.129,28.7,
1443,1,SBT2050,2,4,,2,6510,4.15012,1.418,2226.574,250.129,27.9,
1443,1,SBT2050,2,4,,2,6696,4.150206,1.121,2291.779,250.129,27.2,
1443,1,SBT2050,2,4,,2,6882,4.15015,0.91,2344.014,250.129,26.6,
1443,1,SBT2050,2,4,,2,7068,4.15011,0.7537,2386.785,250.129,26.2,
1443,1,SBT2050,2,4,,2,7254,4.15009,0.6319,2422.45,250.129,26,
1443,1,SBT2050,2,4,,2,7440,4.14987,0.5383,2452.623,250.129,25.7,
1443,1,SBT2050,2,4,,2,7626,4.14992,0.46561,2478.475,250.129,25.5,
1443,1,SBT2050,2,4,,2,7812,4.15005,0.40458,2500.89,250.129,25.4,
1443,1,SBT2050,2,4,,2,7998,4.15034,0.357,2520.529,250.129,25.4,
1443,1,SBT2050,2,4,,2,8184,4.15028,0.31712,2537.904,250.129,25.3,
1443,1,SBT2050,2,4,,2,8370,4.14977,0.28382,2553.367,250.129,25.3,
1443,1,SBT2050,2,4,,2,8556,4.15027,0.25511,2567.264,250.129,25.1,
1443,1,SBT2050,2,4,,2,8742,4.15008,0.2314,2579.826,250.129,25.1,
1443,1,SBT2050,2,4,,2,8928,4.150206,0.21116,2591.264,250.129,25.1,
1443,1,SBT2050,2,4,,2,9114,4.14999,0.19345,2601.731,250.129,25.1,
1443,1,SBT2050,2,4,,2,9300,4.15027,0.17808,2611.318,250.129,25.1,
1443,1,SBT2050,2,4,,2,9486,4.149968,0.16407,2620.149,250.129,25,
1443,1,SBT2050,2,4,,2,9672,4.15017,0.15085,2628.277,250.129,25,
1443,1,SBT2050,2,4,,2,9858,4.14998,0.14012,2635.791,250.129,25.1,
1443,1,SBT2050,2,4,,2,10044,4.15,0.12951,2642.74,250.129,25,
1443,1,SBT2050,2,4,,2,10230,4.15004,0.1202,2649.167,250.129,25,
1443,1,SBT2050,2,4,,2,10416,4.15009,0.11034,2655.139,250.129,24.9,
1443,1,SBT2050,2,4,,2,10602,4.14975,0.10363,2660.677,250.129,25,
1443,1,SBT2050,2,4,,2,10788,4.15012,0.09606,2665.859,250.129,25,
1443,1,SBT2050,2,4,,2,10974,4.15016,0.08964,2670.668,250.129,25,
1443,1,SBT2050,2,4,,2,11160,4.149932,0.0838,2675.162,250.129,25,
1443,1,SBT2050,2,4,,2,11346,4.15,0.07854,2679.358,250.129,25,
1443,1,SBT2050,2,4,,2,11532,4.149944,0.07335,2683.272,250.129,25.1,
1443,1,SBT2050,2,4,,2,11718,4.15015,0.06885,2686.933,250.129,25,
1443,1,SBT2050,2,4,,2,11904,4.14975,0.0638,2690.36,250.129,25,
1443,1,SBT2050,2,4,,2,12090,4.15008,0.05919,2693.552,250.129,25,
1443,1,SBT2050,2,4,,2,12276,4.15008,0.05612,2696.526,250.129,24.9,
1443,1,SBT2050,2,4,,2,12462,4.14988,0.05248,2699.313,250.129,25,
1443,1,SBT2050,2,4,,2,12648,4.15003,0.04911,2701.947,250.129,25,
1443,1,SBT2050,2,4,,2,12834,4.149932,0.046045,2704.412,250.129,24.9,
1443,1,SBT2050,2,4,,2,13020,4.14981,0.043624,2706.724,250.129,25,
1443,1,SBT2050,2,4,,2,13206,4.150206,0.040915,2708.901,250.129,25,
1443,1,SBT2050,2,4,,2,13392,4.15005,0.038408,2710.954,250.129,25,
1443,1,SBT2050,2,4,,2,13578,4.14987,0.036774,2712.891,250.129,25,
1443,1,SBT2050,2,4,,2,13764,4.14981,0.034457,2714.716,250.129,25,
1443,1,SBT2050,2,4,,2,13950,4.1499,0.032153,2716.453,250.129,24.9,
1443,1,SBT2050,2,4,,2,14136,4.15003,0.030555,2718.072,250.129,24.9,
1443,1,SBT2050,2,4,,2,14322,4.1498,0.028987,2719.609,250.129,24.9,
1443,1,SBT2050,2,4,,2,14508,4.149956,0.027209,2721.073,250.129,24.9,
1443,1,SBT2050,2,4,,2,14694,4.15005,0.025912,2722.455,250.129,24.9,
1443,1,SBT2050,2,4,,2,14880,4.15004,0.02543,2723.786,250.129,24.9,
1443,1,SBT2050,2,4,,2,15066,4.15016,0.024092,2725.043,250.129,24.9,
1443,1,SBT2050,2,4,,2,15252,4.14999,0.022386,2726.23,250.129,24.9,
1443,1,SBT2050,2,4,,2,15438,4.14988,0.021887,2727.369,250.129,24.9,
1443,1,SBT2050,2,4,,2,15624,4.14999,0.020426,2728.448,250.129,24.9,
1443,1,SBT2050,2,4,,2,15810,4.149968,0.019812,2729.474,250.129,24.9,
1443,1,SBT2050,2,4,,2,15996,4.15011,0.018999,2730.454,250.129,24.8,
1443,1,SBT2050,2,4,,2,16182,4.1501,0.017585,2731.388,250.129,24.9,
1443,1,SBT2050,2,4,,2,16368,4.149968,0.016464,2732.271,250.129,24.9,
1443,1,SBT2050,2,4,,2,16554,4.1499,0.016101,2733.117,250.129,24.9,
1443,1,SBT2050,2,4,,2,16740,4.14969,0.016024,2733.935,250.129,24.9,
1443,1,SBT2050,2,4,,2,16926,4.15017,0.015349,2734.731,250.129,24.9,
1443,1,SBT2050,2,4,,2,17112,4.14986,0.014495,2735.478,250.129,24.9,
1443,1,SBT2050,2,4,,2,17298,4.15002,0.013336,2736.203,250.129,25,
1443,1,SBT2050,2,4,,2,17484,4.15013,0.013018,2736.883,250.129,24.9,
1443,1,SBT2050,2,4,,2,17670,4.15011,0.012783,2737.543,250.129,24.9,
1443,1,SBT2050,2,4,,2,17856,4.149968,0.01202,2738.18,250.129,24.9,
1443,1,SBT2050,2,4,,2,18042,4.1499,0.011821,2738.797,250.129,24.9,
1443,1,SBT2050,2,4,,2,18228,4.15005,0.011044,2739.383,250.129,24.9,
1443,1,SBT2050,2,4,,2,18414,4.15025,0.010626,2739.959,250.129,24.9,
1443,1,SBT2050,2,4,,2,18600,4.149968,0.010708,2740.51,250.129,24.9,
1443,1,SBT2050,2,4,,3,18785,4.14745,0,2740.579,250.129,24.9,
1443,1,SBT2050,2,4,,3,18971,4.14724,0,2740.579,250.129,24.9,
1443,1,SBT2050,2,4,,3,19157,4.14639,0,2740.579,250.129,25,
1443,1,SBT2050,2,4,,3,19343,4.14587,0,2740.579,250.129,24.9,
1443,1,SBT2050,2,4,,3,19529,4.14595,0,2740.579,250.129,24.9,
1443,1,SBT2050,2,4,,3,19715,4.1456,0,2740.579,250.129,24.9,
1443,1,SBT2050,2,4,,3,19901,4.145328,0,2740.579,250.129,24.9,
1443,1,SBT2050,2,4,,3,20087,4.14537,0,2740.579,250.129,24.9,
1443,1,SBT2050,2,4,,3,20273,4.14485,0,2740.579,250.129,24.9,
1443,1,SBT2050,2,4,,4,20458,3.84303,-2.936,2740.579,278.488,25.2,
1443,1,SBT2050,2,4,,4,20644,3.77468,-2.9359,2740.579,430.178,27.2,
1443,1,SBT2050,2,4,,4,20830,3.74438,-2.9358,2740.579,581.869,28,
1443,1,SBT2050,2,4,,4,21016,3.7038,-2.9358,2740.579,733.559,28.3,
1443,1,SBT2050,2,4,,4,21202,3.65665,-2.9355,2740.579,885.25,28.2,
1443,1,SBT2050,2,4,,4,21388,3.6069,-2.9358,2740.579,1036.941,28.1,
1443,1,SBT2050,2,4,,4,21574,3.55391,-2.9359,2740.579,1188.631,28.2,
1443,1,SBT2050,2,4,,4,21760,3.499736,-2.9364,2740.579,1340.321,28.3,
1443,1,SBT2050,2,4,,4,21946,3.4467,-2.9359,2740.579,1492.012,28.3,
1443,1,SBT2050,2,4,,4,22132,3.39635,-2.9361,2740.579,1643.702,28.4,
1443,1,SBT2050,2,4,,4,22318,3.347348,-2.936,2740.579,1795.393,28.5,
1443,1,SBT2050,2,4,,4,22504,3.294845,-2.9362,2740.579,1947.084,28.7,
1443,1,SBT2050,2,4,,4,22690,3.234452,-2.9365,2740.579,2098.774,29,
1443,1,SBT2050,2,4,,4,22876,3.1574,-2.9356,2740.579,2250.466,29.5,
1443,1,SBT2050,2,4,,4,23062,3.05086,-2.9361,2740.579,2402.156,30.3,
1443,1,SBT2050,2,4,,4,23248,2.88847,-2.9358,2740.579,2553.847,31.3,
1443,1,SBT2050,2,4,,4,23434,2.57533,-2.936,2740.579,2705.538,33.4,
1443,1,SBT2050,2,4,,4,23620,2.49993,-1.5082,2740.579,2818.716,34.3,
1443,1,SBT2050,2,4,,4,23806,2.49971,-0.8002,2740.579,2875.942,32,
1443,1,SBT2050,2,4,,4,23992,2.49971,-0.4765,2740.579,2907.808,29.6,
1443,1,SBT2050,2,4,,4,24178,2.49993,-0.32827,2740.579,2928.112,28,
1443,1,SBT2050,2,4,,4,24364,2.4998,-0.24705,2740.579,2942.821,27,
1443,1,SBT2050,2,4,,4,24550,2.49988,-0.19085,2740.579,2954.059,26.4,
1443,1,SBT2050,2,4,,4,24736,2.499903,-0.1481,2740.579,2962.768,26,
1443,1,SBT2050,2,4,,4,24922,2.49995,-0.11424,2740.579,2969.505,25.7,
1443,1,SBT2050,2,4,,4,25108,2.500034,-0.08889,2740.579,2974.718,25.5,
1443,1,SBT2050,2,4,,4,25294,2.5,-0.06876,2740.579,2978.766,25.3,
1443,1,SBT2050,2,4,,4,25480,2.49991,-0.05291,2740.579,2981.893,25.2,
1443,1,SBT2050,2,4,,4,25666,2.49995,-0.040354,2740.579,2984.288,25.2,
1443,1,SBT2050,2,4,,4,25852,2.49986,-0.030964,2740.579,2986.118,25.2,
1443,1,SBT2050,2,4,,4,26038,2.49997,-0.023871,2740.579,2987.526,25.2,
1443,1,SBT2050,2,4,,4,26224,2.50001,-0.018466,2740.579,2988.614,25.3,
1443,1,SBT2050,2,4,,4,26410,2.49984,-0.014509,2740.579,2989.461,25.3,
1443,1,SBT2050,2,4,,4,26596,2.50001,-0.01185,2740.579,2990.135,25.2,
1443,1,SBT2050,2,4,,5,26781,2.511853,0,2740.579,2990.657,25.2,
1443,1,SBT2050,2,4,,5,26967,2.59538,0,2740.579,2990.657,25,
1443,1,SBT2050,2,4,,5,27153,2.64923,0,2740.579,2990.657,24.9,
1443,1,SBT2050,2,4,,5,27339,2.68634,0,2740.579,2990.657,24.9,
1443,1,SBT2050,2,4,,5,27525,2.7136,0,2740.579,2990.657,24.8,
1443,1,SBT2050,2,4,,5,27711,2.73411,0,2740.579,2990.657,24.8,
1443,1,SBT2050,2,4,,5,27897,2.75018,0,2740.579,2990.657,24.8,
1443,1,SBT2050,2,4,,5,28083,2.76283,0,2740.579,2990.657,24.8,
1443,1,SBT2050,2,4,,5,28269,2.77335,0,2740.579,2990.657,24.8,
1443,1,SBT2050,2,4,,5,28455,2.7822,0,2740.579,2990.657,24.9,
1443,1,SBT2050,2,4,,5,28568.442,2.7869,-9.9E-05,2740.579,2990.657,,

File: Test1473.csv
Request Year:,2018,,,,,,,,,,,,
Test:,1473,,,,,,,,,,,,
Test Description:,,,,,,,,,,,,,
TestRegime Name:,Aging_Performance,,,,,,,,,,,,
TestRegime Suffix:,SHP_LC,,,,,,,,,,,,
TestRegime CellSize:,18650,,,,,,,,,,,,
TestRegime Version:,1,,,,,,,,,,,,
Number Of Cells:,1,,,,,,,,,,,,
LotID:,,,,,,,,,,,,,
Lot Description:,,,,,,,,,,,,,
Date Made:,1/21/2003 12:00 AM,,,,,,,,,,,,
Origin:,Other,,,,,,,,,,,,
Requestor:,Admin,,,,,,,,,,,,
Product ID:,Default product,,,,,,,,,,,,
Storage Temp:,R.T./AMB,,,,,,,,,,,,
Storage Delay:,0 days,,,,,,,,,,,,
Test Temp:,R.T./AMB,,,,,,,,,,,,
Start Time:,4/11/2018 3:31 AM,,,,,,,,,,,,
End Time:,4/11/2018 11:49 AM,,,,,,,,,,,,
Operator Instructions:,,,,,,,,,,,,,
Test,Cell,Rack,Shelf,Position,Cell ID,Step,Total Time (Seconds),Voltage (V),Current (A),Charge Capacity (mAh),Discharge Capacity (mAh),TC1 (Â°C),
1473,1,SBT2050,2,4,,0,1,3.34282,0,0,0,25.1,
1473,1,SBT2050,2,4,,0,195,3.342927,0,0,0,25.1,
1473,1,SBT2050,2,4,,1,389,2.49985,-1.4357,0,51.459,27.4,
1473,1,SBT2050,2,4,,1,583,2.49994,-0.774,0,108.341,28.7,
1473,1,SBT2050,2,4,,1,777,2.49986,-0.4824,0,141.338,28.2,
1473,1,SBT2050,2,4,,1,971,2.49968,-0.3296,0,162.777,27.4,
1473,1,SBT2050,2,4,,1,1165,2.49985,-0.24304,0,178.011,26.8,
1473,1,SBT2050,2,4,,1,1359,2.49991,-0.1882,0,189.521,26.4,
1473,1,SBT2050,2,4,,1,1553,2.49979,-0.15088,0,198.599,26.1,
1473,1,SBT2050,2,4,,1,1747,2.50001,-0.12289,0,205.94,25.9,
1473,1,SBT2050,2,4,,1,1941,2.499894,-0.10146,0,211.966,25.7,
1473,1,SBT2050,2,4,,1,2135,2.49987,-0.08463,0,216.963,25.6,
1473,1,SBT2050,2,4,,1,2329,2.50008,-0.07025,0,221.12,25.5,
1473,1,SBT2050,2,4,,1,2523,2.500037,-0.0582,0,224.57,25.4,
1473,1,SBT2050,2,4,,1,2717,2.50005,-0.04818,0,227.429,25.3,
1473,1,SBT2050,2,4,,1,2911,2.49995,-0.040194,0,229.804,25.3,
1473,1,SBT2050,2,4,,1,3105,2.5001,-0.034049,0,231.796,25.3,
1473,1,SBT2050,2,4,,1,3299,2.49994,-0.028649,0,233.475,25.3,
1473,1,SBT2050,2,4,,1,3493,2.49997,-0.02403,0,234.891,25.2,
1473,1,SBT2050,2,4,,1,3687,2.49991,-0.020076,0,236.077,25.2,
1473,1,SBT2050,2,4,,1,3881,2.49983,-0.016633,0,237.062,25.2,
1473,1,SBT2050,2,4,,1,4075,2.49983,-0.013623,0,237.881,25.2,
1473,1,SBT2050,2,4,,1,4269,2.49994,-0.011397,0,238.557,25.2,
1473,1,SBT2050,2,4,,2,4462,3.50691,2.9358,68.281,238.885,25.7,
1473,1,SBT2050,2,4,,2,4656,3.645434,2.9363,226.497,238.885,27.4,
1473,1,SBT2050,2,4,,2,4850,3.69345,2.936,384.712,238.885,28.5,
1473,1,SBT2050,2,4,,2,5044,3.72422,2.9363,542.928,238.885,28.9,
1473,1,SBT2050,2,4,,2,5238,3.75432,2.9359,701.144,238.885,28.8,
1473,1,SBT2050,2,4,,2,5432,3.78773,2.936,859.359,238.885,28.9,
1473,1,SBT2050,2,4,,2,5626,3.82295,2.9362,1017.575,238.885,28.8,
1473,1,SBT2050,2,4,,2,5820,3.86412,2.9356,1175.79,238.885,28.9,
1473,1,SBT2050,2,4,,2,6014,3.91181,2.9358,1334.006,238.885,29,
1473,1,SBT2050,2,4,,2,6208,3.96746,2.9358,1492.222,238.885,29.2,
1473,1,SBT2050,2,4,,2,6402,4.02556,2.9359,1650.437,238.885,29.3,
1473,1,SBT2050,2,4,,2,6596,4.08529,2.9362,1808.653,238.885,29.5,
1473,1,SBT2050,2,4,,2,6790,4.14749,2.9357,1966.869,238.885,29.7,
1473,1,SBT2050,2,4,,2,6984,4.15016,2.1897,2103.677,238.885,29.4,
1473,1,SBT2050,2,4,,2,7178,4.15026,1.649,2206.469,238.885,28.5,
1473,1,SBT2050,2,4,,2,7372,4.15027,1.2627,2284.315,238.885,27.6,
1473,1,SBT2050,2,4,,2,7566,4.15006,0.9894,2344.565,238.885,27,
1473,1,SBT2050,2,4,,2,7760,4.14989,0.795,2392.365,238.885,26.5,
1473,1,SBT2050,2,4,,2,7954,4.14995,0.6529,2431.215,238.885,26.1,
1473,1,SBT2050,2,4,,2,8148,4.15017,0.5474,2463.421,238.885,25.9,
1473,1,SBT2050,2,4,,2,8342,4.15016,0.46457,2490.588,238.885,25.7,
1473,1,SBT2050,2,4,,2,8536,4.14988,0.40119,2513.843,238.885,25.6,
1473,1,SBT2050,2,4,,2,8730,4.150096,0.34837,2533.987,238.885,25.5,
1473,1,SBT2050,2,4,,2,8924,4.14989,0.30638,2551.614,238.885,25.4,
1473,1,SBT2050,2,4,,2,9118,4.14997,0.27129,2567.162,238.885,25.3,
1473,1,SBT2050,2,4,,2,9312,4.14999,0.24276,2581.013,238.885,25.3,
1473,1,SBT2050,2,4,,2,9506,4.149822,0.21789,2593.407,238.885,25.3,
1473,1,SBT2050,2,4,,2,9700,4.15031,0.19673,2604.573,238.885,25.3,
1473,1,SBT2050,2,4,,2,9894,4.150382,0.1784,2614.658,238.885,25.2,
1473,1,SBT2050,2,4,,2,10088,4.150084,0.16219,2623.83,238.885,25.2,
1473,1,SBT2050,2,4,,2,10282,4.150132,0.14832,2632.2,238.885,25.2,
1473,1,SBT2050,2,4,,2,10476,4.15026,0.13512,2639.84,238.885,25.2,
1473,1,SBT2050,2,4,,2,10670,4.15026,0.12516,2646.843,238.885,25.2,
1473,1,SBT2050,2,4,,2,10864,4.14988,0.11478,2653.275,238.885,25.2,
1473,1,SBT2050,2,4,,2,11058,4.15004,0.10559,2659.22,238.885,25.2,
1473,1,SBT2050,2,4,,2,11252,4.15022,0.09766,2664.691,238.885,25.1,
1473,1,SBT2050,2,4,,2,11446,4.15018,0.09045,2669.76,238.885,25.2,
1473,1,SBT2050,2,4,,2,11640,4.15014,0.08372,2674.456,238.885,25.1,
1473,1,SBT2050,2,4,,2,11834,4.15,0.07746,2678.812,238.885,25.2,
1473,1,SBT2050,2,4,,2,12028,4.15022,0.07253,2682.86,238.885,25.2,
1473,1,SBT2050,2,4,,2,12222,4.15,0.067,2686.638,238.885,25.1,
1473,1,SBT2050,2,4,,2,12416,4.14993,0.06327,2690.167,238.885,25.1,
1473,1,SBT2050,2,4,,2,12610,4.15004,0.05898,2693.47,238.885,25.1,
1473,1,SBT2050,2,4,,2,12804,4.15002,0.05516,2696.549,238.885,25.1,
1473,1,SBT2050,2,4,,2,12998,4.15032,0.05117,2699.451,238.885,25.1,
1473,1,SBT2050,2,4,,2,13192,4.14994,0.04835,2702.155,238.885,25.1,
1473,1,SBT2050,2,4,,2,13386,4.14998,0.045945,2704.71,238.885,25.1,
1473,1,SBT2050,2,4,,2,13580,4.15006,0.043042,2707.116,238.885,25.2,
1473,1,SBT2050,2,4,,2,13774,4.15029,0.040403,2709.375,238.885,25.1,
1473,1,SBT2050,2,4,,2,13968,4.15012,0.038036,2711.506,238.885,25.2,
1473,1,SBT2050,2,4,,2,14162,4.15001,0.036182,2713.504,238.885,25.1,
1473,1,SBT2050,2,4,,2,14356,4.14991,0.034094,2715.413,238.885,25.1,
1473,1,SBT2050,2,4,,2,14550,4.15002,0.032258,2717.196,238.885,25.1,
1473,1,SBT2050,2,4,,2,14744,4.150132,0.030482,2718.886,238.885,25.2,
1473,1,SBT2050,2,4,,2,14938,4.149846,0.029423,2720.497,238.885,25.1,
1473,1,SBT2050,2,4,,2,15132,4.15001,0.027623,2722.013,238.885,25.1,
1473,1,SBT2050,2,4,,2,15326,4.15016,0.026475,2723.478,238.885,25.1,
1473,1,SBT2050,2,4,,2,15520,4.150084,0.024888,2724.864,238.885,25.1,
1473,1,SBT2050,2,4,,2,15714,4.14999,0.024028,2726.177,238.885,25.1,
1473,1,SBT2050,2,4,,2,15908,4.14991,0.022531,2727.422,238.885,25.1,
1473,1,SBT2050,2,4,,2,16102,4.14973,0.021712,2728.609,238.885,25.1,
1473,1,SBT2050,2,4,,2,16296,4.150096,0.021139,2729.751,238.885,25.1,
1473,1,SBT2050,2,4,,2,16490,4.15001,0.019738,2730.838,238.885,25.1,
1473,1,SBT2050,2,4,,2,16684,4.15001,0.018489,2731.876,238.885,25.1,
1473,1,SBT2050,2,4,,2,16878,4.15004,0.018239,2732.868,238.885,25.1,
1473,1,SBT2050,2,4,,2,17072,4.15007,0.017202,2733.827,238.885,25.1,
1473,1,SBT2050,2,4,,2,17266,4.15016,0.01691,2734.741,238.885,25.1,
1473,1,SBT2050,2,4,,2,17460,4.150096,0.015544,2735.626,238.885,25.1,
1473,1,SBT2050,2,4,,2,17654,4.14992,0.015426,2736.46,238.885,25.1,
1473,1,SBT2050,2,4,,2,17848,4.14989,0.014315,2737.275,238.885,25.2,
1473,1,SBT2050,2,4,,2,18042,4.14999,0.014364,2738.051,238.885,25.2,
1473,1,SBT2050,2,4,,2,18236,4.15006,0.013601,2738.797,238.885,25.1,
1473,1,SBT2050,2,4,,2,18430,4.15019,0.012759,2739.513,238.885,25.1,
1473,1,SBT2050,2,4,,2,18624,4.14981,0.012563,2740.211,238.885,25.1,
1473,1,SBT2050,2,4,,2,18818,4.150096,0.011875,2740.869,238.885,25.1,
1473,1,SBT2050,2,4,,2,19012,4.14991,0.011978,2741.507,238.885,25.1,
1473,1,SBT2050,2,4,,2,19206,4.14989,0.011397,2742.126,238.885,25.1,
1473,1,SBT2050,2,4,,2,19400,4.14998,0.010587,2742.721,238.885,25.1,
1473,1,SBT2050,2,4,,3,19593,4.14732,0,2743.05,238.885,25.1,
1473,1,SBT2050,2,4,,3,19787,4.14649,0,2743.05,238.885,25.1,
1473,1,SBT2050,2,4,,3,19981,4.14595,0,2743.05,238.885,25.1,
1473,1,SBT2050,2,4,,3,20175,4.14499,0,2743.05,238.885,25.1,
1473,1,SBT2050,2,4,,3,20369,4.14496,0,2743.05,238.885,25.1,
1473,1,SBT2050,2,4,,3,20563,4.1449,0,2743.05,238.885,25.1,
1473,1,SBT2050,2,4,,3,20757,4.14451,0,2743.05,238.885,25.1,
1473,1,SBT2050,2,4,,3,20951,4.14425,0,2743.05,238.885,25.1,
1473,1,SBT2050,2,4,,3,21145,4.14401,0,2743.05,238.885,25.1,
1473,1,SBT2050,2,4,,4,21338,3.84692,-2.9358,2743.05,260.777,25.3,
1473,1,SBT2050,2,4,,4,21532,3.76634,-2.9362,2743.05,418.993,27.3,
1473,1,SBT2050,2,4,,4,21726,3.73469,-2.9363,2743.05,577.208,28.2,
1473,1,SBT2050,2,4,,4,21920,3.69477,-2.9359,2743.05,735.423,28.5,
1473,1,SBT2050,2,4,,4,22114,3.64807,-2.9354,2743.05,893.638,28.5,
1473,1,SBT2050,2,4,,4,22308,3.59769,-2.936,2743.05,1051.853,28.4,
1473,1,SBT2050,2,4,,4,22502,3.54433,-2.9358,2743.05,1210.068,28.5,
1473,1,SBT2050,2,4,,4,22696,3.49013,-2.9357,2743.05,1368.283,28.5,
1473,1,SBT2050,2,4,,4,22890,3.43681,-2.9357,2743.05,1526.499,28.5,
1473,1,SBT2050,2,4,,4,23084,3.387,-2.936,2743.05,1684.714,28.6,
1473,1,SBT2050,2,4,,4,23278,3.33693,-2.9362,2743.05,1842.929,28.7,
1473,1,SBT2050,2,4,,4,23472,3.28186,-2.9359,2743.05,2001.145,29,
1473,1,SBT2050,2,4,,4,23666,3.2171,-2.9361,2743.05,2159.361,29.3,
1473,1,SBT2050,2,4,,4,23860,3.1323,-2.9365,2743.05,2317.576,29.8,
1473,1,SBT2050,2,4,,4,24054,3.01033,-2.9363,2743.05,2475.791,30.7,
1473,1,SBT2050,2,4,,4,24248,2.79906,-2.9362,2743.05,2634.007,32,
1473,1,SBT2050,2,4,,4,24442,2.49977,-2.0444,2743.05,2781.648,34.5,
1473,1,SBT2050,2,4,,4,24636,2.49995,-0.9368,2743.05,2857.435,32.8,
1473,1,SBT2050,2,4,,4,24830,2.49995,-0.5096,2743.05,2894.659,30.3,
1473,1,SBT2050,2,4,,4,25024,2.499844,-0.32473,2743.05,2916.51,28.5,
1473,1,SBT2050,2,4,,4,25218,2.499987,-0.23113,2743.05,2931.244,27.3,
1473,1,SBT2050,2,4,,4,25412,2.50001,-0.17419,2743.05,2942.045,26.6,
1473,1,SBT2050,2,4,,4,25606,2.49992,-0.13597,2743.05,2950.332,26.2,
1473,1,SBT2050,2,4,,4,25800,2.49987,-0.1081,2743.05,2956.866,25.9,
1473,1,SBT2050,2,4,,4,25994,2.49995,-0.08599,2743.05,2962.076,25.7,
1473,1,SBT2050,2,4,,4,26188,2.50001,-0.06885,2743.05,2966.237,25.6,
1473,1,SBT2050,2,4,,4,26382,2.499975,-0.05542,2743.05,2969.567,25.6,
1473,1,SBT2050,2,4,,4,26576,2.4999,-0.044991,2743.05,2972.261,25.4,
1473,1,SBT2050,2,4,,4,26770,2.50007,-0.036763,2743.05,2974.462,25.4,
1473,1,SBT2050,2,4,,4,26964,2.50005,-0.030314,2743.05,2976.263,25.4,
1473,1,SBT2050,2,4,,4,27158,2.49982,-0.024523,2743.05,2977.735,25.3,
1473,1,SBT2050,2,4,,4,27352,2.5,-0.020351,2743.05,2978.945,25.3,
1473,1,SBT2050,2,4,,4,27546,2.4998,-0.01677,2743.05,2979.943,25.2,
1473,1,SBT2050,2,4,,4,27740,2.50013,-0.014214,2743.05,2980.774,25.2,
1473,1,SBT2050,2,4,,4,27934,2.50007,-0.011626,2743.05,2981.463,25.2,
1473,1,SBT2050,2,4,,5,28127,2.53737,0,2743.05,2981.863,25.2,
1473,1,SBT2050,2,4,,5,28321,2.60632,0,2743.05,2981.863,25.2,
1473,1,SBT2050,2,4,,5,28515,2.65074,0,2743.05,2981.863,25.2,
1473,1,SBT2050,2,4,,5,28709,2.68167,0,2743.05,2981.863,25.1,
1473,1,SBT2050,2,4,,5,28903,2.7054,0,2743.05,2981.863,25.1,
1473,1,SBT2050,2,4,,5,29097,2.72393,0,2743.05,2981.863,25.2,
1473,1,SBT2050,2,4,,5,29291,2.73874,0,2743.05,2981.863,25.1,
1473,1,SBT2050,2,4,,5,29485,2.751312,0,2743.05,2981.863,25.1,
1473,1,SBT2050,2,4,,5,29679,2.76142,0,2743.05,2981.863,25.1,
1473,1,SBT2050,2,4,,5,29866.012,2.77017,-9.9E-05,2743.05,2981.863,,