Folder: OR-RG_ExpRes/1C (part 5)

File: Test1503.csv
Request Year:,2018,,,,,,,,,,,,
Test:,1503,,,,,,,,,,,,
Test Description:,,,,,,,,,,,,,
TestRegime Name:,Aging_Performance,,,,,,,,,,,,
TestRegime Suffix:,SHP_LC,,,,,,,,,,,,
TestRegime CellSize:,18650,,,,,,,,,,,,
TestRegime Version:,1,,,,,,,,,,,,
Number Of Cells:,1,,,,,,,,,,,,
LotID:,,,,,,,,,,,,,
Lot Description:,,,,,,,,,,,,,
Date Made:,1/21/2003 12:00 AM,,,,,,,,,,,,
Origin:,Other,,,,,,,,,,,,
Requestor:,Admin,,,,,,,,,,,,
Product ID:,Default product,,,,,,,,,,,,
Storage Temp:,R.T./AMB,,,,,,,,,,,,
Storage Delay:,0 days,,,,,,,,,,,,
Test Temp:,R.T./AMB,,,,,,,,,,,,
Start Time:,4/17/2018 5:21 PM,,,,,,,,,,,,
End Time:,4/18/2018 3:31 AM,,,,,,,,,,,,
Operator Instructions:,,,,,,,,,,,,,
Test,Cell,Rack,Shelf,Position,Cell ID,Step,Total Time (Seconds),Voltage (V),Current (A),Charge Capacity (mAh),Discharge Capacity (mAh),TC1 (Â°C),
1503,1,SBT2050,2,4,,0,1,3.362582,0,0,0,25.1,
1503,1,SBT2050,2,4,,0,239,3.36323,0,0,0,25.1,
1503,1,SBT2050,2,4,,1,477,2.49984,-1.1943,0,87.364,28.6,
1503,1,SBT2050,2,4,,1,715,2.49989,-0.6929,0,147.47,28.8,
1503,1,SBT2050,2,4,,1,953,2.4998,-0.45349,0,184.56,28,
1503,1,SBT2050,2,4,,1,1191,2.49985,-0.32163,0,209.8,27.1,
1503,1,SBT2050,2,4,,1,1429,2.50001,-0.2434,0,228.274,26.6,
1503,1,SBT2050,2,4,,1,1667,2.50007,-0.19349,0,242.592,26.2,
1503,1,SBT2050,2,4,,1,1905,2.49996,-0.15831,0,254.148,25.9,
1503,1,SBT2050,2,4,,1,2143,2.50007,-0.13186,0,263.694,25.8,
1503,1,SBT2050,2,4,,1,2381,2.4999,-0.11144,0,271.705,25.6,
1503,1,SBT2050,2,4,,1,2619,2.49994,-0.09526,0,278.516,25.5,
1503,1,SBT2050,2,4,,1,2857,2.50005,-0.0816,0,284.337,25.4,
1503,1,SBT2050,2,4,,1,3095,2.50003,-0.06937,0,289.311,25.3,
1503,1,SBT2050,2,4,,1,3333,2.4999,-0.05909,0,293.552,25.3,
1503,1,SBT2050,2,4,,1,3571,2.50005,-0.04986,0,297.15,25.3,
1503,1,SBT2050,2,4,,1,3809,2.49994,-0.041918,0,300.178,25.2,
1503,1,SBT2050,2,4,,1,4047,2.49972,-0.035262,0,302.719,25.2,
1503,1,SBT2050,2,4,,1,4285,2.50002,-0.030175,0,304.874,25.1,
1503,1,SBT2050,2,4,,1,4523,2.49989,-0.025833,0,306.724,25.1,
1503,1,SBT2050,2,4,,1,4761,2.49992,-0.022187,0,308.317,25.1,
1503,1,SBT2050,2,4,,1,4999,2.49995,-0.019296,0,309.689,25.1,
1503,1,SBT2050,2,4,,1,5237,2.499995,-0.016584,0,310.87,25.1,
1503,1,SBT2050,2,4,,1,5475,2.499995,-0.014439,0,311.89,25.1,
1503,1,SBT2050,2,4,,1,5713,2.49984,-0.01239,0,312.773,25,
1503,1,SBT2050,2,4,,1,5951,2.50003,-0.010697,0,313.535,25,
1503,1,SBT2050,2,4,,2,6188,3.65399,2.9362,130.444,313.758,26.4,
1503,1,SBT2050,2,4,,2,6426,3.72418,2.936,324.542,313.758,28.5,
1503,1,SBT2050,2,4,,2,6664,3.76649,2.9363,518.64,313.758,29.3,
1503,1,SBT2050,2,4,,2,6902,3.80641,2.9363,712.738,313.758,29.5,
1503,1,SBT2050,2,4,,2,7140,3.85073,2.9361,906.837,313.758,29.5,
1503,1,SBT2050,2,4,,2,7378,3.90401,2.9358,1100.935,313.758,29.6,
1503,1,SBT2050,2,4,,2,7616,3.96769,2.9361,1295.033,313.758,29.7,
1503,1,SBT2050,2,4,,2,7854,4.03739,2.9356,1489.132,313.758,29.9,
1503,1,SBT2050,2,4,,2,8092,4.11133,2.9362,1683.23,313.758,30.1,
1503,1,SBT2050,2,4,,2,8330,4.15005,2.4798,1869.135,313.758,30.1,
1503,1,SBT2050,2,4,,2,8568,4.15006,1.8201,2009.996,313.758,29.1,
1503,1,SBT2050,2,4,,2,8806,4.15016,1.362,2114.248,313.758,28,
1503,1,SBT2050,2,4,,2,9044,4.15019,1.0551,2193.573,313.758,27.2,
1503,1,SBT2050,2,4,,2,9282,4.15001,0.8371,2255.713,313.758,26.6,
1503,1,SBT2050,2,4,,2,9520,4.14995,0.6777,2305.485,313.758,26.2,
1503,1,SBT2050,2,4,,2,9758,4.14988,0.56,2346.201,313.758,25.9,
1503,1,SBT2050,2,4,,2,9996,4.15006,0.4689,2380.071,313.758,25.6,
1503,1,SBT2050,2,4,,2,10234,4.15001,0.39868,2408.665,313.758,25.5,
1503,1,SBT2050,2,4,,2,10472,4.15001,0.34442,2433.158,313.758,25.4,
1503,1,SBT2050,2,4,,2,10710,4.15012,0.30064,2454.446,313.758,25.4,
1503,1,SBT2050,2,4,,2,10948,4.14997,0.26495,2473.119,313.758,25.3,
1503,1,SBT2050,2,4,,2,11186,4.14997,0.23695,2489.682,313.758,25.2,
1503,1,SBT2050,2,4,,2,11424,4.149962,0.21271,2504.518,313.758,25.2,
1503,1,SBT2050,2,4,,2,11662,4.15009,0.193,2517.923,313.758,25.2,
1503,1,SBT2050,2,4,,2,11900,4.15007,0.17538,2530.088,313.758,25.1,
1503,1,SBT2050,2,4,,2,12138,4.15018,0.15968,2541.182,313.758,25.1,
1503,1,SBT2050,2,4,,2,12376,4.14989,0.14664,2551.311,313.758,25.1,
1503,1,SBT2050,2,4,,2,12614,4.15034,0.13416,2560.576,313.758,25.1,
1503,1,SBT2050,2,4,,2,12852,4.15006,0.12385,2569.099,313.758,25.1,
1503,1,SBT2050,2,4,,2,13090,4.15007,0.11403,2576.952,313.758,25.1,
1503,1,SBT2050,2,4,,2,13328,4.14995,0.10514,2584.185,313.758,25,
1503,1,SBT2050,2,4,,2,13566,4.149926,0.09773,2590.877,313.758,25.1,
1503,1,SBT2050,2,4,,2,13804,4.15002,0.09089,2597.099,313.758,25,
1503,1,SBT2050,2,4,,2,14042,4.149962,0.08375,2602.867,313.758,25,
1503,1,SBT2050,2,4,,2,14280,4.149914,0.07857,2608.236,313.758,25,
1503,1,SBT2050,2,4,,2,14518,4.15015,0.07276,2613.245,313.758,25,
1503,1,SBT2050,2,4,,2,14756,4.15007,0.06835,2617.922,313.758,25,
1503,1,SBT2050,2,4,,2,14994,4.15016,0.06403,2622.305,313.758,25,
1503,1,SBT2050,2,4,,2,15232,4.14982,0.06015,2626.404,313.758,25,
1503,1,SBT2050,2,4,,2,15470,4.149926,0.05606,2630.249,313.758,25,
1503,1,SBT2050,2,4,,2,15708,4.15006,0.05298,2633.853,313.758,25,
1503,1,SBT2050,2,4,,2,15946,4.14978,0.05002,2637.255,313.758,25,
1503,1,SBT2050,2,4,,2,16184,4.15015,0.046939,2640.467,313.758,25,
1503,1,SBT2050,2,4,,2,16422,4.15002,0.044616,2643.481,313.758,25,
1503,1,SBT2050,2,4,,2,16660,4.150224,0.041551,2646.328,313.758,24.9,
1503,1,SBT2050,2,4,,2,16898,4.15006,0.03987,2649.029,313.758,25,
1503,1,SBT2050,2,4,,2,17136,4.14976,0.037936,2651.599,313.758,25,
1503,1,SBT2050,2,4,,2,17374,4.149926,0.036042,2654.041,313.758,25,
1503,1,SBT2050,2,4,,2,17612,4.15013,0.034156,2656.353,313.758,25,
1503,1,SBT2050,2,4,,2,17850,4.149914,0.032277,2658.56,313.758,25,
1503,1,SBT2050,2,4,,2,18088,4.149962,0.030866,2660.649,313.758,25,
1503,1,SBT2050,2,4,,2,18326,4.15018,0.029488,2662.641,313.758,24.9,
1503,1,SBT2050,2,4,,2,18564,4.15,0.028113,2664.545,313.758,25,
1503,1,SBT2050,2,4,,2,18802,4.14995,0.026716,2666.354,313.758,25,
1503,1,SBT2050,2,4,,2,19040,4.14983,0.025542,2668.09,313.758,25.1,
1503,1,SBT2050,2,4,,2,19278,4.14995,0.0242,2669.74,313.758,24.9,
1503,1,SBT2050,2,4,,2,19516,4.15002,0.023173,2671.31,313.758,24.9,
1503,1,SBT2050,2,4,,2,19754,4.15001,0.022475,2672.816,313.758,25,
1503,1,SBT2050,2,4,,2,19992,4.1499,0.021841,2674.264,313.758,24.9,
1503,1,SBT2050,2,4,,2,20230,4.14978,0.021274,2675.661,313.758,25,
1503,1,SBT2050,2,4,,2,20468,4.14999,0.019807,2676.993,313.758,25,
1503,1,SBT2050,2,4,,2,20706,4.149914,0.018912,2678.269,313.758,25,
1503,1,SBT2050,2,4,,2,20944,4.15012,0.018258,2679.494,313.758,25,
1503,1,SBT2050,2,4,,2,21182,4.15006,0.017697,2680.677,313.758,25,
1503,1,SBT2050,2,4,,2,21420,4.14995,0.016845,2681.831,313.758,25,
1503,1,SBT2050,2,4,,2,21658,4.14997,0.016274,2682.912,313.758,24.9,
1503,1,SBT2050,2,4,,2,21896,4.14984,0.015912,2683.969,313.758,24.9,
1503,1,SBT2050,2,4,,2,22134,4.15,0.015293,2684.993,313.758,24.9,
1503,1,SBT2050,2,4,,2,22372,4.149914,0.014362,2685.977,313.758,25,
1503,1,SBT2050,2,4,,2,22610,4.149938,0.014262,2686.929,313.758,25,
1503,1,SBT2050,2,4,,2,22848,4.149962,0.013979,2687.851,313.758,24.9,
1503,1,SBT2050,2,4,,2,23086,4.14979,0.013584,2688.749,313.758,25,
1503,1,SBT2050,2,4,,2,23324,4.14999,0.013273,2689.61,313.758,25,
1503,1,SBT2050,2,4,,2,23562,4.14999,0.012434,2690.448,313.758,25,
1503,1,SBT2050,2,4,,2,23800,4.14995,0.012048,2691.249,313.758,25,
1503,1,SBT2050,2,4,,2,24038,4.14999,0.011757,2692.024,313.758,24.9,
1503,1,SBT2050,2,4,,2,24276,4.15005,0.011049,2692.776,313.758,24.9,
1503,1,SBT2050,2,4,,2,24514,4.15037,0.010759,2693.496,313.758,24.9,
1503,1,SBT2050,2,4,,3,24751,4.14676,0,2693.805,313.758,24.9,
1503,1,SBT2050,2,4,,3,24989,4.14554,0,2693.805,313.758,24.9,
1503,1,SBT2050,2,4,,3,25227,4.14491,0,2693.805,313.758,25,
1503,1,SBT2050,2,4,,3,25465,4.14424,0,2693.805,313.758,25,
1503,1,SBT2050,2,4,,3,25703,4.14369,0,2693.805,313.758,25,
1503,1,SBT2050,2,4,,3,25941,4.143274,0,2693.805,313.758,25.1,
1503,1,SBT2050,2,4,,3,26179,4.14297,0,2693.805,313.758,24.9,
1503,1,SBT2050,2,4,,3,26417,4.1426,0,2693.805,313.758,24.9,
1503,1,SBT2050,2,4,,4,26654,3.71357,-2.9361,2693.805,505.326,27.6,
1503,1,SBT2050,2,4,,4,26892,3.67068,-2.9359,2693.805,699.424,28.7,
1503,1,SBT2050,2,4,,4,27130,3.614,-2.9364,2693.805,893.522,28.9,
1503,1,SBT2050,2,4,,4,27368,3.55047,-2.9363,2693.805,1087.62,28.9,
1503,1,SBT2050,2,4,,4,27606,3.48346,-2.9358,2693.805,1281.72,29,
1503,1,SBT2050,2,4,,4,27844,3.41574,-2.9358,2693.805,1475.819,29.1,
1503,1,SBT2050,2,4,,4,28082,3.34747,-2.9357,2693.805,1669.917,29.2,
1503,1,SBT2050,2,4,,4,28320,3.275713,-2.9353,2693.805,1864.016,29.5,
1503,1,SBT2050,2,4,,4,28558,3.19335,-2.9358,2693.805,2058.115,29.9,
1503,1,SBT2050,2,4,,4,28796,3.08817,-2.9361,2693.805,2252.214,30.5,
1503,1,SBT2050,2,4,,4,29034,2.938112,-2.9357,2693.805,2446.312,31.6,
1503,1,SBT2050,2,4,,4,29272,2.63027,-2.9361,2693.805,2640.411,33.5,
1503,1,SBT2050,2,4,,4,29510,2.4999,-1.3397,2693.805,2782.707,34.2,
1503,1,SBT2050,2,4,,4,29748,2.4997,-0.6581,2693.805,2844.841,31.1,
1503,1,SBT2050,2,4,,4,29986,2.49987,-0.41564,2693.805,2879.087,28.8,
1503,1,SBT2050,2,4,,4,30224,2.4999,-0.31215,2693.805,2902.744,27.5,
1503,1,SBT2050,2,4,,4,30462,2.49991,-0.25345,2693.805,2921.326,26.8,
1503,1,SBT2050,2,4,,4,30700,2.500089,-0.20916,2693.805,2936.578,26.4,
1503,1,SBT2050,2,4,,4,30938,2.49989,-0.1729,2693.805,2949.183,25.9,
1503,1,SBT2050,2,4,,4,31176,2.500089,-0.14348,2693.805,2959.609,25.8,
1503,1,SBT2050,2,4,,4,31414,2.499946,-0.11873,2693.805,2968.243,25.7,
1503,1,SBT2050,2,4,,4,31652,2.49981,-0.09806,2693.805,2975.384,25.5,
1503,1,SBT2050,2,4,,4,31890,2.50002,-0.08058,2693.805,2981.264,25.4,
1503,1,SBT2050,2,4,,4,32128,2.50002,-0.06682,2693.805,2986.116,25.3,
1503,1,SBT2050,2,4,,4,32366,2.49997,-0.05573,2693.805,2990.151,25.3,
1503,1,SBT2050,2,4,,4,32604,2.500077,-0.047046,2693.805,2993.538,25.3,
1503,1,SBT2050,2,4,,4,32842,2.50007,-0.040569,2693.805,2996.423,25.3,
1503,1,SBT2050,2,4,,4,33080,2.500089,-0.034786,2693.805,2998.901,25.2,
1503,1,SBT2050,2,4,,4,33318,2.49997,-0.029823,2693.805,3001.031,25,
1503,1,SBT2050,2,4,,4,33556,2.49991,-0.025186,2693.805,3002.854,25,
1503,1,SBT2050,2,4,,4,33794,2.49986,-0.021389,2693.805,3004.399,25,
1503,1,SBT2050,2,4,,4,34032,2.50002,-0.018102,2693.805,3005.702,25.1,
1503,1,SBT2050,2,4,,4,34270,2.50012,-0.015214,2693.805,3006.798,25,
1503,1,SBT2050,2,4,,4,34508,2.49998,-0.012758,2693.805,3007.718,25,
1503,1,SBT2050,2,4,,4,34746,2.499934,-0.010746,2693.805,3008.49,25,
1503,1,SBT2050,2,4,,5,34983,2.57885,0,2693.805,3008.708,25,
1503,1,SBT2050,2,4,,5,35221,2.6447,0,2693.805,3008.708,25.1,
1503,1,SBT2050,2,4,,5,35459,2.68483,0,2693.805,3008.708,25,
1503,1,SBT2050,2,4,,5,35697,2.71159,0,2693.805,3008.708,24.8,
1503,1,SBT2050,2,4,,5,35935,2.73048,0,2693.805,3008.708,24.9,
1503,1,SBT2050,2,4,,5,36173,2.74521,0,2693.805,3008.708,25,
1503,1,SBT2050,2,4,,5,36411,2.756761,0,2693.805,3008.708,25,
1503,1,SBT2050,2,4,,5,36621.218,2.76521,-0.0001,2693.805,3008.708,,

File: Test1505.csv
Request Year:,2018,,,,,,,,,,,,
Test:,1505,,,,,,,,,,,,
Test Description:,,,,,,,,,,,,,
TestRegime Name:,Aging_Performance,,,,,,,,,,,,
TestRegime Suffix:,SHP_LC,,,,,,,,,,,,
TestRegime CellSize:,18650,,,,,,,,,,,,
TestRegime Version:,1,,,,,,,,,,,,
Number Of Cells:,1,,,,,,,,,,,,
LotID:,,,,,,,,,,,,,
Lot Description:,,,,,,,,,,,,,
Date Made:,1/21/2003 12:00 AM,,,,,,,,,,,,
Origin:,Other,,,,,,,,,,,,
Requestor:,Admin,,,,,,,,,,,,
Product ID:,Default product,,,,,,,,,,,,
Storage Temp:,R.T./AMB,,,,,,,,,,,,
Storage Delay:,0 days,,,,,,,,,,,,
Test Temp:,R.T./AMB,,,,,,,,,,,,
Start Time:,4/19/2018 10:26 PM,,,,,,,,,,,,
End Time:,4/20/2018 8:53 AM,,,,,,,,,,,,
Operator Instructions:,,,,,,,,,,,,,
Test,Cell,Rack,Shelf,Position,Cell ID,Step,Total Time (Seconds),Voltage (V),Current (A),Charge Capacity (mAh),Discharge Capacity (mAh),TC1 (Â°C),
1505,1,SBT2050,2,4,,0,1,3.36673,0,0,0,24.8,
1505,1,SBT2050,2,4,,0,246,3.36688,0,0,0,24.9,
1505,1,SBT2050,2,4,,1,491,2.499903,-1.164,0,92.99,28.6,
1505,1,SBT2050,2,4,,1,736,2.499891,-0.6635,0,152.613,28.5,
1505,1,SBT2050,2,4,,1,981,2.499891,-0.43735,0,189.205,27.5,
1505,1,SBT2050,2,4,,1,1226,2.499879,-0.31762,0,214.517,26.8,
1505,1,SBT2050,2,4,,1,1471,2.49991,-0.24511,0,233.486,26.3,
1505,1,SBT2050,2,4,,1,1716,2.49986,-0.19893,0,248.49,26,
1505,1,SBT2050,2,4,,1,1961,2.49996,-0.16577,0,260.838,25.8,
1505,1,SBT2050,2,4,,1,2206,2.50001,-0.14015,0,271.222,25.7,
1505,1,SBT2050,2,4,,1,2451,2.49982,-0.11996,0,280.065,25.6,
1505,1,SBT2050,2,4,,1,2696,2.5,-0.10383,0,287.663,25.5,
1505,1,SBT2050,2,4,,1,2941,2.5,-0.09016,0,294.247,25.5,
1505,1,SBT2050,2,4,,1,3186,2.49993,-0.07855,0,299.985,25.3,
1505,1,SBT2050,2,4,,1,3431,2.50011,-0.06893,0,304.997,25.2,
1505,1,SBT2050,2,4,,1,3676,2.49997,-0.05985,0,309.373,25.2,
1505,1,SBT2050,2,4,,1,3921,2.49996,-0.05213,0,313.186,25.2,
1505,1,SBT2050,2,4,,1,4166,2.50008,-0.045393,0,316.5,25.2,
1505,1,SBT2050,2,4,,1,4411,2.500034,-0.039237,0,319.372,25.1,
1505,1,SBT2050,2,4,,1,4656,2.49997,-0.03395,0,321.857,25.1,
1505,1,SBT2050,2,4,,1,4901,2.5003,-0.029413,0,324.009,25.1,
1505,1,SBT2050,2,4,,1,5146,2.50001,-0.025525,0,325.875,25.2,
1505,1,SBT2050,2,4,,1,5391,2.49987,-0.022126,0,327.495,25.1,
1505,1,SBT2050,2,4,,1,5636,2.49994,-0.019189,0,328.904,25,
1505,1,SBT2050,2,4,,1,5881,2.50009,-0.016786,0,330.13,24.9,
1505,1,SBT2050,2,4,,1,6126,2.49996,-0.014612,0,331.195,25,
1505,1,SBT2050,2,4,,1,6371,2.500034,-0.012757,0,332.123,25,
1505,1,SBT2050,2,4,,1,6616,2.49999,-0.011286,0,332.937,25,
1505,1,SBT2050,2,4,,2,6860,3.55882,2.9361,65.158,333.425,25.6,
1505,1,SBT2050,2,4,,2,7105,3.71765,2.9356,264.965,333.425,28.1,
1505,1,SBT2050,2,4,,2,7350,3.77117,2.9359,464.772,333.425,29.2,
1505,1,SBT2050,2,4,,2,7595,3.81224,2.9362,664.579,333.425,29.5,
1505,1,SBT2050,2,4,,2,7840,3.85831,2.9355,864.387,333.425,29.4,
1505,1,SBT2050,2,4,,2,8085,3.91333,2.9363,1064.194,333.425,29.4,
1505,1,SBT2050,2,4,,2,8330,3.97845,2.9359,1264.001,333.425,29.6,
1505,1,SBT2050,2,4,,2,8575,4.05038,2.936,1463.808,333.425,29.8,
1505,1,SBT2050,2,4,,2,8820,4.126648,2.9363,1663.615,333.425,30,
1505,1,SBT2050,2,4,,2,9065,4.15014,2.3193,1847.145,333.425,29.8,
1505,1,SBT2050,2,4,,2,9310,4.149952,1.7111,1982.945,333.425,28.7,
1505,1,SBT2050,2,4,,2,9555,4.14993,1.3013,2084.488,333.425,27.7,
1505,1,SBT2050,2,4,,2,9800,4.149964,1.02,2162.909,333.425,27,
1505,1,SBT2050,2,4,,2,10045,4.149988,0.8172,2225.129,333.425,26.5,
1505,1,SBT2050,2,4,,2,10290,4.15002,0.6672,2275.452,333.425,25.9,
1505,1,SBT2050,2,4,,2,10535,4.15014,0.5533,2316.84,333.425,25.7,
1505,1,SBT2050,2,4,,2,10780,4.15008,0.46579,2351.415,333.425,25.6,
1505,1,SBT2050,2,4,,2,11025,4.15002,0.39744,2380.715,333.425,25.5,
1505,1,SBT2050,2,4,,2,11270,4.15001,0.34315,2405.859,333.425,25.4,
1505,1,SBT2050,2,4,,2,11515,4.15011,0.30117,2427.719,333.425,25.4,
1505,1,SBT2050,2,4,,2,11760,4.15025,0.26527,2446.932,333.425,25.3,
1505,1,SBT2050,2,4,,2,12005,4.15033,0.23685,2463.999,333.425,25.2,
1505,1,SBT2050,2,4,,2,12250,4.149964,0.21367,2479.305,333.425,25.3,
1505,1,SBT2050,2,4,,2,12495,4.15007,0.19422,2493.149,333.425,25.2,
1505,1,SBT2050,2,4,,2,12740,4.15013,0.17603,2505.724,333.425,25.1,
1505,1,SBT2050,2,4,,2,12985,4.149952,0.1614,2517.182,333.425,25.1,
1505,1,SBT2050,2,4,,2,13230,4.15006,0.14827,2527.713,333.425,25.1,
1505,1,SBT2050,2,4,,2,13475,4.14988,0.13592,2537.368,333.425,25.1,
1505,1,SBT2050,2,4,,2,13720,4.14988,0.125,2546.25,333.425,25.1,
1505,1,SBT2050,2,4,,2,13965,4.14979,0.11663,2554.432,333.425,25.1,
1505,1,SBT2050,2,4,,2,14210,4.149952,0.10651,2561.995,333.425,25,
1505,1,SBT2050,2,4,,2,14455,4.15015,0.09912,2568.985,333.425,25.1,
1505,1,SBT2050,2,4,,2,14700,4.15021,0.09174,2575.482,333.425,25.2,
1505,1,SBT2050,2,4,,2,14945,4.14984,0.08546,2581.525,333.425,25,
1505,1,SBT2050,2,4,,2,15190,4.14987,0.0796,2587.139,333.425,25,
1505,1,SBT2050,2,4,,2,15435,4.149988,0.07459,2592.384,333.425,25.1,
1505,1,SBT2050,2,4,,2,15680,4.1499,0.06982,2597.298,333.425,25,
1505,1,SBT2050,2,4,,2,15925,4.14987,0.06519,2601.899,333.425,25,
1505,1,SBT2050,2,4,,2,16170,4.15014,0.06104,2606.215,333.425,25,
1505,1,SBT2050,2,4,,2,16415,4.149952,0.05778,2610.264,333.425,25,
1505,1,SBT2050,2,4,,2,16660,4.14983,0.0546,2614.086,333.425,25,
1505,1,SBT2050,2,4,,2,16905,4.149988,0.05141,2617.695,333.425,25.1,
1505,1,SBT2050,2,4,,2,17150,4.14979,0.04884,2621.104,333.425,25.1,
1505,1,SBT2050,2,4,,2,17395,4.14986,0.045942,2624.318,333.425,24.9,
1505,1,SBT2050,2,4,,2,17640,4.15002,0.043781,2627.361,333.425,24.9,
1505,1,SBT2050,2,4,,2,17885,4.14987,0.041525,2630.252,333.425,25,
1505,1,SBT2050,2,4,,2,18130,4.14992,0.039646,2633.002,333.425,25,
1505,1,SBT2050,2,4,,2,18375,4.14986,0.037744,2635.627,333.425,25,
1505,1,SBT2050,2,4,,2,18620,4.15025,0.035558,2638.106,333.425,25,
1505,1,SBT2050,2,4,,2,18865,4.14994,0.033996,2640.467,333.425,25,
1505,1,SBT2050,2,4,,2,19110,4.149678,0.032124,2642.716,333.425,25,
1505,1,SBT2050,2,4,,2,19355,4.15002,0.030515,2644.854,333.425,25.1,
1505,1,SBT2050,2,4,,2,19600,4.15006,0.028969,2646.909,333.425,25,
1505,1,SBT2050,2,4,,2,19845,4.149988,0.028123,2648.858,333.425,24.9,
1505,1,SBT2050,2,4,,2,20090,4.15,0.026878,2650.734,333.425,25,
1505,1,SBT2050,2,4,,2,20335,4.15005,0.026239,2652.529,333.425,25,
1505,1,SBT2050,2,4,,2,20580,4.149964,0.024525,2654.235,333.425,25,
1505,1,SBT2050,2,4,,2,20825,4.15,0.023489,2655.868,333.425,25,
1505,1,SBT2050,2,4,,2,21070,4.14971,0.022932,2657.439,333.425,25,
1505,1,SBT2050,2,4,,2,21315,4.15001,0.022217,2658.953,333.425,25,
1505,1,SBT2050,2,4,,2,21560,4.1499,0.021209,2660.408,333.425,25,
1505,1,SBT2050,2,4,,2,21805,4.15004,0.0199,2661.8,333.425,25.1,
1505,1,SBT2050,2,4,,2,22050,4.15012,0.019016,2663.144,333.425,25,
1505,1,SBT2050,2,4,,2,22295,4.149952,0.018431,2664.423,333.425,24.9,
1505,1,SBT2050,2,4,,2,22540,4.14989,0.017693,2665.66,333.425,25,
1505,1,SBT2050,2,4,,2,22785,4.15013,0.01734,2666.856,333.425,25,
1505,1,SBT2050,2,4,,2,23030,4.15019,0.016792,2668.013,333.425,25,
1505,1,SBT2050,2,4,,2,23275,4.14989,0.016342,2669.126,333.425,25,
1505,1,SBT2050,2,4,,2,23520,4.15007,0.015215,2670.203,333.425,25,
1505,1,SBT2050,2,4,,2,23765,4.15015,0.014933,2671.23,333.425,25,
1505,1,SBT2050,2,4,,2,24010,4.15002,0.01469,2672.229,333.425,25,
1505,1,SBT2050,2,4,,2,24255,4.15017,0.013647,2673.203,333.425,25.1,
1505,1,SBT2050,2,4,,2,24500,4.149988,0.013152,2674.139,333.425,24.9,
1505,1,SBT2050,2,4,,2,24745,4.14987,0.013052,2675.045,333.425,24.9,
1505,1,SBT2050,2,4,,2,24990,4.15006,0.012562,2675.928,333.425,25,
1505,1,SBT2050,2,4,,2,25235,4.1502,0.012244,2676.777,333.425,25,
1505,1,SBT2050,2,4,,2,25480,4.149964,0.011867,2677.596,333.425,25,
1505,1,SBT2050,2,4,,2,25725,4.14992,0.011576,2678.39,333.425,25,
1505,1,SBT2050,2,4,,2,25970,4.14983,0.011346,2679.161,333.425,25,
1505,1,SBT2050,2,4,,2,26215,4.149952,0.010812,2679.917,333.425,25.1,
1505,1,SBT2050,2,4,,2,26460,4.15007,0.010337,2680.657,333.425,25.1,
1505,1,SBT2050,2,4,,3,26704,4.14801,0,2681.333,333.425,25.1,
1505,1,SBT2050,2,4,,3,26949,4.14592,0,2681.333,333.425,24.9,
1505,1,SBT2050,2,4,,3,27194,4.144684,0,2681.333,333.425,25,
1505,1,SBT2050,2,4,,3,27439,4.144222,0,2681.333,333.425,25,
1505,1,SBT2050,2,4,,3,27684,4.1441,0,2681.333,333.425,25,
1505,1,SBT2050,2,4,,3,27929,4.14306,0,2681.333,333.425,25,
1505,1,SBT2050,2,4,,3,28174,4.142826,0,2681.333,333.425,25,
1505,1,SBT2050,2,4,,3,28419,4.14259,0,2681.333,333.425,25.1,
1505,1,SBT2050,2,4,,4,28663,3.71162,-2.936,2681.333,475.772,27.2,
1505,1,SBT2050,2,4,,4,28908,3.66562,-2.9362,2681.333,675.58,28.6,
1505,1,SBT2050,2,4,,4,29153,3.60833,-2.9364,2681.333,875.388,28.9,
1505,1,SBT2050,2,4,,4,29398,3.54257,-2.9357,2681.333,1075.197,29,
1505,1,SBT2050,2,4,,4,29643,3.47345,-2.9363,2681.333,1275.005,29,
1505,1,SBT2050,2,4,,4,29888,3.40313,-2.936,2681.333,1474.813,29.1,
1505,1,SBT2050,2,4,,4,30133,3.33097,-2.9359,2681.333,1674.621,29.2,
1505,1,SBT2050,2,4,,4,30378,3.25319,-2.9359,2681.333,1874.429,29.5,
1505,1,SBT2050,2,4,,4,30623,3.162442,-2.9359,2681.333,2074.237,30,
1505,1,SBT2050,2,4,,4,30868,3.04611,-2.9359,2681.333,2274.045,30.7,
1505,1,SBT2050,2,4,,4,31113,2.87096,-2.9356,2681.333,2473.853,31.9,
1505,1,SBT2050,2,4,,4,31358,2.49976,-2.5133,2681.333,2671.817,34.5,
1505,1,SBT2050,2,4,,4,31603,2.4999,-1.035,2681.333,2782.463,32.8,
1505,1,SBT2050,2,4,,4,31848,2.49995,-0.5729,2681.333,2834.381,29.7,
1505,1,SBT2050,2,4,,4,32093,2.499914,-0.39983,2681.333,2866.67,28,
1505,1,SBT2050,2,4,,4,32338,2.5,-0.31668,2681.333,2890.778,27.1,
1505,1,SBT2050,2,4,,4,32583,2.5001,-0.26586,2681.333,2910.489,26.6,
1505,1,SBT2050,2,4,,4,32828,2.50001,-0.2253,2681.333,2927.167,26.3,
1505,1,SBT2050,2,4,,4,33073,2.49969,-0.19016,2681.333,2941.292,26,
1505,1,SBT2050,2,4,,4,33318,2.49988,-0.15979,2681.333,2953.177,25.8,
1505,1,SBT2050,2,4,,4,33563,2.49997,-0.13441,2681.333,2963.164,25.8,
1505,1,SBT2050,2,4,,4,33808,2.499926,-0.11339,2681.333,2971.57,25.6,
1505,1,SBT2050,2,4,,4,34053,2.49985,-0.0958,2681.333,2978.671,25.5,
1505,1,SBT2050,2,4,,4,34298,2.5,-0.08116,2681.333,2984.671,25.4,
1505,1,SBT2050,2,4,,4,34543,2.5,-0.06912,2681.333,2989.77,25.4,
1505,1,SBT2050,2,4,,4,34788,2.49985,-0.05924,2681.333,2994.125,25.3,
1505,1,SBT2050,2,4,,4,35033,2.50001,-0.05081,2681.333,2997.859,25.2,
1505,1,SBT2050,2,4,,4,35278,2.50005,-0.043726,2681.333,3001.072,25.2,
1505,1,SBT2050,2,4,,4,35523,2.49999,-0.037673,2681.333,3003.843,25.1,
1505,1,SBT2050,2,4,,4,35768,2.50002,-0.032563,2681.333,3006.232,25.1,
1505,1,SBT2050,2,4,,4,36013,2.50009,-0.027877,2681.333,3008.286,25.1,
1505,1,SBT2050,2,4,,4,36258,2.50002,-0.023641,2681.333,3010.037,25.1,
1505,1,SBT2050,2,4,,4,36503,2.49999,-0.019977,2681.333,3011.523,25.1,
1505,1,SBT2050,2,4,,4,36748,2.50005,-0.017125,2681.333,3012.787,25.1,
1505,1,SBT2050,2,4,,4,36993,2.50001,-0.014697,2681.333,3013.863,25.1,
1505,1,SBT2050,2,4,,4,37238,2.50002,-0.012475,2681.333,3014.778,25.1,
1505,1,SBT2050,2,4,,4,37483,2.49985,-0.010571,2681.333,3015.563,25,
1505,1,SBT2050,2,4,,5,37596.18,2.52961,0,2681.333,3015.766,,