Folder: OR-RG_ExpRes/1C (part 7)

File: Test1565.csv
Request Year:,2018,,,,,,,,,,,,
Test:,1565,,,,,,,,,,,,
Test Description:,,,,,,,,,,,,,
TestRegime Name:,Aging_Performance,,,,,,,,,,,,
TestRegime Suffix:,SHP_LC,,,,,,,,,,,,
TestRegime CellSize:,18650,,,,,,,,,,,,
TestRegime Version:,1,,,,,,,,,,,,
Number Of Cells:,1,,,,,,,,,,,,
LotID:,,,,,,,,,,,,,
Lot Description:,,,,,,,,,,,,,
Date Made:,1/21/2003 12:00 AM,,,,,,,,,,,,
Origin:,Other,,,,,,,,,,,,
Requestor:,Admin,,,,,,,,,,,,
Product ID:,Default product,,,,,,,,,,,,
Storage Temp:,R.T./AMB,,,,,,,,,,,,
Storage Delay:,0 days,,,,,,,,,,,,
Test Temp:,R.T./AMB,,,,,,,,,,,,
Start Time:,5/1/2018 9:20 AM,,,,,,,,,,,,
End Time:,5/1/2018 9:48 PM,,,,,,,,,,,,
Operator Instructions:,,,,,,,,,,,,,
Test,Cell,Rack,Shelf,Position,Cell ID,Step,Total Time (Seconds),Voltage (V),Current (A),Charge Capacity (mAh),Discharge Capacity (mAh),TC1 (Â°C),
1565,1,SBT2050,2,4,,0,1,3.37545,0,0,0,25.2,
1565,1,SBT2050,2,4,,0,295,3.37682,0,0,0,25.2,
1565,1,SBT2050,2,4,,1,589,2.49979,-0.9138,0,120.242,29.1,
1565,1,SBT2050,2,4,,1,883,2.49982,-0.522,0,176.438,28.4,
1565,1,SBT2050,2,4,,1,1177,2.499889,-0.34748,0,211.107,27.4,
1565,1,SBT2050,2,4,,1,1471,2.50008,-0.25779,0,235.463,26.7,
1565,1,SBT2050,2,4,,1,1765,2.5,-0.20533,0,254.205,26.3,
1565,1,SBT2050,2,4,,1,2059,2.49998,-0.16983,0,269.427,26.1,
1565,1,SBT2050,2,4,,1,2353,2.50001,-0.14388,0,282.169,25.9,
1565,1,SBT2050,2,4,,1,2647,2.49992,-0.12446,0,293.089,25.8,
1565,1,SBT2050,2,4,,1,2941,2.49976,-0.10882,0,302.589,25.7,
1565,1,SBT2050,2,4,,1,3235,2.50002,-0.09623,0,310.954,25.6,
1565,1,SBT2050,2,4,,1,3529,2.50008,-0.08568,0,318.371,25.6,
1565,1,SBT2050,2,4,,1,3823,2.49985,-0.07602,0,324.961,25.5,
1565,1,SBT2050,2,4,,1,4117,2.50002,-0.06719,0,330.799,25.5,
1565,1,SBT2050,2,4,,1,4411,2.49994,-0.05956,0,335.977,25.4,
1565,1,SBT2050,2,4,,1,4705,2.49994,-0.05329,0,340.58,25.4,
1565,1,SBT2050,2,4,,1,4999,2.50004,-0.04708,0,344.67,25.3,
1565,1,SBT2050,2,4,,1,5293,2.500032,-0.041812,0,348.296,25.3,
1565,1,SBT2050,2,4,,1,5587,2.49992,-0.036909,0,351.505,25.3,
1565,1,SBT2050,2,4,,1,5881,2.50006,-0.032998,0,354.354,25.3,
1565,1,SBT2050,2,4,,1,6175,2.49996,-0.029094,0,356.878,25.3,
1565,1,SBT2050,2,4,,1,6469,2.499877,-0.025569,0,359.106,25.3,
1565,1,SBT2050,2,4,,1,6763,2.5,-0.022469,0,361.07,25.3,
1565,1,SBT2050,2,4,,1,7057,2.49996,-0.019785,0,362.794,25.3,
1565,1,SBT2050,2,4,,1,7351,2.49987,-0.017465,0,364.312,25.2,
1565,1,SBT2050,2,4,,1,7645,2.49997,-0.015342,0,365.652,25.2,
1565,1,SBT2050,2,4,,1,7939,2.50002,-0.013692,0,366.837,25.2,
1565,1,SBT2050,2,4,,1,8233,2.49987,-0.011934,0,367.883,25.2,
1565,1,SBT2050,2,4,,1,8527,2.49997,-0.010578,0,368.808,25.2,
1565,1,SBT2050,2,4,,2,8820,3.68184,2.936,146.323,369.138,27,
1565,1,SBT2050,2,4,,2,9114,3.76661,2.9361,386.094,369.138,29.3,
1565,1,SBT2050,2,4,,2,9408,3.816718,2.9361,625.864,369.138,29.9,
1565,1,SBT2050,2,4,,2,9702,3.87289,2.9362,865.634,369.138,30,
1565,1,SBT2050,2,4,,2,9996,3.941684,2.9358,1105.404,369.138,30.1,
1565,1,SBT2050,2,4,,2,10290,4.02391,2.9365,1345.174,369.138,30.4,
1565,1,SBT2050,2,4,,2,10584,4.11527,2.9361,1584.943,369.138,30.7,
1565,1,SBT2050,2,4,,2,10878,4.14975,2.2792,1805.81,369.138,30.4,
1565,1,SBT2050,2,4,,2,11172,4.15012,1.5979,1962.04,369.138,29,
1565,1,SBT2050,2,4,,2,11466,4.15013,1.174,2073.919,369.138,27.9,
1565,1,SBT2050,2,4,,2,11760,4.15005,0.8984,2157.824,369.138,27.2,
1565,1,SBT2050,2,4,,2,12054,4.149918,0.7122,2223.135,369.138,26.8,
1565,1,SBT2050,2,4,,2,12348,4.15001,0.577,2275.447,369.138,26.5,
1565,1,SBT2050,2,4,,2,12642,4.14993,0.4788,2318.329,369.138,26.3,
1565,1,SBT2050,2,4,,2,12936,4.15005,0.40428,2354.244,369.138,26.2,
1565,1,SBT2050,2,4,,2,13230,4.14998,0.34869,2384.925,369.138,26.1,
1565,1,SBT2050,2,4,,2,13524,4.14993,0.3055,2411.538,369.138,26,
1565,1,SBT2050,2,4,,2,13818,4.14994,0.26845,2434.905,369.138,25.9,
1565,1,SBT2050,2,4,,2,14112,4.14983,0.23876,2455.554,369.138,25.9,
1565,1,SBT2050,2,4,,2,14406,4.14967,0.21147,2473.931,369.138,25.8,
1565,1,SBT2050,2,4,,2,14700,4.14983,0.18949,2490.272,369.138,25.7,
1565,1,SBT2050,2,4,,2,14994,4.15,0.17004,2504.936,369.138,25.7,
1565,1,SBT2050,2,4,,2,15288,4.15012,0.15394,2518.145,369.138,25.6,
1565,1,SBT2050,2,4,,2,15582,4.15006,0.1394,2530.109,369.138,25.6,
1565,1,SBT2050,2,4,,2,15876,4.14997,0.12712,2540.978,369.138,25.5,
1565,1,SBT2050,2,4,,2,16170,4.14999,0.11621,2550.887,369.138,25.5,
1565,1,SBT2050,2,4,,2,16464,4.14993,0.10584,2559.974,369.138,25.5,
1565,1,SBT2050,2,4,,2,16758,4.14994,0.09763,2568.298,369.138,25.5,
1565,1,SBT2050,2,4,,2,17052,4.14998,0.08933,2575.936,369.138,25.4,
1565,1,SBT2050,2,4,,2,17346,4.15005,0.0822,2582.947,369.138,25.4,
1565,1,SBT2050,2,4,,2,17640,4.150192,0.07602,2589.413,369.138,25.3,
1565,1,SBT2050,2,4,,2,17934,4.15001,0.06995,2595.354,369.138,25.3,
1565,1,SBT2050,2,4,,2,18228,4.15001,0.06437,2600.825,369.138,25.3,
1565,1,SBT2050,2,4,,2,18522,4.150168,0.06017,2605.906,369.138,25.3,
1565,1,SBT2050,2,4,,2,18816,4.150168,0.05582,2610.631,369.138,25.2,
1565,1,SBT2050,2,4,,2,19110,4.14994,0.05238,2615.059,369.138,25.2,
1565,1,SBT2050,2,4,,2,19404,4.15012,0.04921,2619.225,369.138,25.2,
1565,1,SBT2050,2,4,,2,19698,4.15006,0.0469,2623.157,369.138,25.2,
1565,1,SBT2050,2,4,,2,19992,4.14982,0.043834,2626.869,369.138,25.2,
1565,1,SBT2050,2,4,,2,20286,4.15018,0.041523,2630.365,369.138,25.2,
1565,1,SBT2050,2,4,,2,20580,4.149918,0.039283,2633.685,369.138,25.2,
1565,1,SBT2050,2,4,,2,20874,4.149894,0.037678,2636.84,369.138,25.2,
1565,1,SBT2050,2,4,,2,21168,4.15,0.036466,2639.85,369.138,25.2,
1565,1,SBT2050,2,4,,2,21462,4.15,0.033736,2642.704,369.138,25.2,
1565,1,SBT2050,2,4,,2,21756,4.14998,0.032685,2645.415,369.138,25.2,
1565,1,SBT2050,2,4,,2,22050,4.14994,0.030781,2647.991,369.138,25.2,
1565,1,SBT2050,2,4,,2,22344,4.149906,0.02923,2650.443,369.138,25.2,
1565,1,SBT2050,2,4,,2,22638,4.15006,0.027687,2652.771,369.138,25.2,
1565,1,SBT2050,2,4,,2,22932,4.15025,0.026221,2654.975,369.138,25.2,
1565,1,SBT2050,2,4,,2,23226,4.15014,0.025191,2657.068,369.138,25.2,
1565,1,SBT2050,2,4,,2,23520,4.14995,0.023956,2659.063,369.138,25.2,
1565,1,SBT2050,2,4,,2,23814,4.15037,0.022721,2660.976,369.138,25.1,
1565,1,SBT2050,2,4,,2,24108,4.15003,0.021833,2662.813,369.138,25.1,
1565,1,SBT2050,2,4,,2,24402,4.15001,0.020965,2664.575,369.138,25.1,
1565,1,SBT2050,2,4,,2,24696,4.150204,0.020061,2666.269,369.138,25.1,
1565,1,SBT2050,2,4,,2,24990,4.15013,0.019169,2667.887,369.138,25.1,
1565,1,SBT2050,2,4,,2,25284,4.14997,0.018303,2669.443,369.138,25.1,
1565,1,SBT2050,2,4,,2,25578,4.15012,0.017835,2670.935,369.138,25.1,
1565,1,SBT2050,2,4,,2,25872,4.14982,0.017436,2672.384,369.138,25.1,
1565,1,SBT2050,2,4,,2,26166,4.14979,0.017395,2673.785,369.138,25.2,
1565,1,SBT2050,2,4,,2,26460,4.15011,0.015904,2675.128,369.138,25.2,
1565,1,SBT2050,2,4,,2,26754,4.14993,0.015855,2676.42,369.138,25.1,
1565,1,SBT2050,2,4,,2,27048,4.15008,0.015214,2677.674,369.138,25.1,
1565,1,SBT2050,2,4,,2,27342,4.14981,0.01454,2678.886,369.138,25.2,
1565,1,SBT2050,2,4,,2,27636,4.14998,0.013774,2680.042,369.138,25.1,
1565,1,SBT2050,2,4,,2,27930,4.14995,0.013512,2681.171,369.138,25.1,
1565,1,SBT2050,2,4,,2,28224,4.14987,0.013148,2682.266,369.138,25.1,
1565,1,SBT2050,2,4,,2,28518,4.15007,0.012597,2683.326,369.138,25.1,
1565,1,SBT2050,2,4,,2,28812,4.14987,0.012107,2684.347,369.138,25.2,
1565,1,SBT2050,2,4,,2,29106,4.14994,0.012226,2685.333,369.138,25.1,
1565,1,SBT2050,2,4,,2,29400,4.15014,0.011617,2686.296,369.138,25.1,
1565,1,SBT2050,2,4,,2,29694,4.14998,0.011513,2687.227,369.138,25.1,
1565,1,SBT2050,2,4,,2,29988,4.15007,0.010912,2688.117,369.138,25.1,
1565,1,SBT2050,2,4,,2,30282,4.14998,0.010324,2688.991,369.138,25.1,
1565,1,SBT2050,2,4,,3,30575,4.14492,0,2689.005,369.138,25.2,
1565,1,SBT2050,2,4,,3,30869,4.14396,0,2689.005,369.138,25.1,
1565,1,SBT2050,2,4,,3,31163,4.14303,0,2689.005,369.138,25.1,
1565,1,SBT2050,2,4,,3,31457,4.14254,0,2689.005,369.138,25.1,
1565,1,SBT2050,2,4,,3,31751,4.14172,0,2689.005,369.138,25.1,
1565,1,SBT2050,2,4,,3,32045,4.14148,0,2689.005,369.138,25.1,
1565,1,SBT2050,2,4,,4,32338,3.67538,-2.9356,2689.005,573.707,28.2,
1565,1,SBT2050,2,4,,4,32632,3.61434,-2.9366,2689.005,813.477,29.3,
1565,1,SBT2050,2,4,,4,32926,3.53751,-2.936,2689.005,1053.247,29.5,
1565,1,SBT2050,2,4,,4,33220,3.45564,-2.9359,2689.005,1293.017,29.6,
1565,1,SBT2050,2,4,,4,33514,3.37066,-2.936,2689.005,1532.787,29.6,
1565,1,SBT2050,2,4,,4,33808,3.28051,-2.9363,2689.005,1772.557,29.9,
1565,1,SBT2050,2,4,,4,34102,3.17718,-2.9359,2689.005,2012.327,30.5,
1565,1,SBT2050,2,4,,4,34396,3.04657,-2.936,2689.005,2252.097,31.3,
1565,1,SBT2050,2,4,,4,34690,2.84301,-2.9359,2689.005,2491.867,32.7,
1565,1,SBT2050,2,4,,4,34984,2.49982,-1.7981,2689.005,2710.83,35.1,
1565,1,SBT2050,2,4,,4,35278,2.49992,-0.7167,2689.005,2803.661,31.6,
1565,1,SBT2050,2,4,,4,35572,2.49984,-0.42456,2689.005,2848.057,28.8,
1565,1,SBT2050,2,4,,4,35866,2.49994,-0.31356,2689.005,2877.657,27.5,
1565,1,SBT2050,2,4,,4,36160,2.49987,-0.24995,2689.005,2900.503,26.8,
1565,1,SBT2050,2,4,,4,36454,2.50002,-0.20384,2689.005,2918.951,26.4,
1565,1,SBT2050,2,4,,4,36748,2.50002,-0.1669,2689.005,2934.016,26.1,
1565,1,SBT2050,2,4,,4,37042,2.499904,-0.13933,2689.005,2946.463,26,
1565,1,SBT2050,2,4,,4,37336,2.49999,-0.11914,2689.005,2956.983,25.9,
1565,1,SBT2050,2,4,,4,37630,2.500047,-0.10315,2689.005,2966.035,25.7,
1565,1,SBT2050,2,4,,4,37924,2.50002,-0.08947,2689.005,2973.879,25.6,
1565,1,SBT2050,2,4,,4,38218,2.50015,-0.07792,2689.005,2980.707,25.6,
1565,1,SBT2050,2,4,,4,38512,2.50012,-0.06828,2689.005,2986.667,25.5,
1565,1,SBT2050,2,4,,4,38806,2.49999,-0.06012,2689.005,2991.901,25.4,
1565,1,SBT2050,2,4,,4,39100,2.49994,-0.05314,2689.005,2996.52,25.4,
1565,1,SBT2050,2,4,,4,39394,2.50006,-0.047024,2689.005,3000.605,25.4,
1565,1,SBT2050,2,4,,4,39688,2.49996,-0.041964,2689.005,3004.236,25.4,
1565,1,SBT2050,2,4,,4,39982,2.50001,-0.037145,2689.005,3007.468,25.3,
1565,1,SBT2050,2,4,,4,40276,2.500047,-0.033125,2689.005,3010.334,25.3,
1565,1,SBT2050,2,4,,4,40570,2.50006,-0.029444,2689.005,3012.881,25.3,
1565,1,SBT2050,2,4,,4,40864,2.49992,-0.026296,2689.005,3015.155,25.3,
1565,1,SBT2050,2,4,,4,41158,2.49999,-0.023337,2689.005,3017.184,25.3,
1565,1,SBT2050,2,4,,4,41452,2.49998,-0.020794,2689.005,3018.991,25.3,
1565,1,SBT2050,2,4,,4,41746,2.50013,-0.018467,2689.005,3020.59,25.2,
1565,1,SBT2050,2,4,,4,42040,2.50002,-0.016299,2689.005,3022.001,25.2,
1565,1,SBT2050,2,4,,4,42334,2.50001,-0.014204,2689.005,3023.245,25.3,
1565,1,SBT2050,2,4,,4,42628,2.5,-0.0125,2689.005,3024.339,25.2,
1565,1,SBT2050,2,4,,4,42922,2.50002,-0.010895,2689.005,3025.293,25.2,
1565,1,SBT2050,2,4,,5,43215,2.581319,0,2689.005,3025.67,25.2,
1565,1,SBT2050,2,4,,5,43509,2.66106,0,2689.005,3025.67,25.2,
1565,1,SBT2050,2,4,,5,43803,2.70628,0,2689.005,3025.67,25.2,
1565,1,SBT2050,2,4,,5,44097,2.73451,0,2689.005,3025.67,25.2,
1565,1,SBT2050,2,4,,5,44391,2.753777,0,2689.005,3025.67,25.2,
1565,1,SBT2050,2,4,,5,44685,2.76762,0,2689.005,3025.67,25.2,
1565,1,SBT2050,2,4,,5,44850.537,2.77362,-0.0001,2689.005,3025.67,,