Folder: OR-RG_ExpRes/1C (part 2)

File: Test1439.csv
Request Year:,2018,,,,,,,,,,,,
Test:,1439,,,,,,,,,,,,
Test Description:,,,,,,,,,,,,,
TestRegime Name:,Aging_Performance,,,,,,,,,,,,
TestRegime Suffix:,SHP_LC,,,,,,,,,,,,
TestRegime CellSize:,18650,,,,,,,,,,,,
TestRegime Version:,1,,,,,,,,,,,,
Number Of Cells:,1,,,,,,,,,,,,
LotID:,,,,,,,,,,,,,
Lot Description:,,,,,,,,,,,,,
Date Made:,1/21/2003 12:00 AM,,,,,,,,,,,,
Origin:,Other,,,,,,,,,,,,
Requestor:,Admin,,,,,,,,,,,,
Product ID:,Default product,,,,,,,,,,,,
Storage Temp:,R.T./AMB,,,,,,,,,,,,
Storage Delay:,0 days,,,,,,,,,,,,
Test Temp:,R.T./AMB,,,,,,,,,,,,
Start Time:,3/31/2018 1:14 PM,,,,,,,,,,,,
End Time:,3/31/2018 8:05 PM,,,,,,,,,,,,
Operator Instructions:,,,,,,,,,,,,,
Test,Cell,Rack,Shelf,Position,Cell ID,Step,Total Time (Seconds),Voltage (V),Current (A),Charge Capacity (mAh),Discharge Capacity (mAh),TC1 (Â°C),
1439,1,SBT2050,2,4,,0,1,3.338543,0,0,0,24.4,
1439,1,SBT2050,2,4,,0,160,3.33852,0,0,0,24.7,
1439,1,SBT2050,2,4,,1,319,2.56415,-2.9359,0,15.494,25.2,
1439,1,SBT2050,2,4,,1,478,2.49989,-1.0768,0,81.686,28.4,
1439,1,SBT2050,2,4,,1,637,2.49965,-0.687,0,119.696,28.5,
1439,1,SBT2050,2,4,,1,796,2.49986,-0.46505,0,144.749,27.9,
1439,1,SBT2050,2,4,,1,955,2.49986,-0.32822,0,162.04,27.2,
1439,1,SBT2050,2,4,,1,1114,2.49999,-0.23854,0,174.435,26.4,
1439,1,SBT2050,2,4,,1,1273,2.49969,-0.1764,0,183.516,25.9,
1439,1,SBT2050,2,4,,1,1432,2.49993,-0.13017,0,190.249,25.5,
1439,1,SBT2050,2,4,,1,1591,2.49975,-0.09191,0,195.117,25.4,
1439,1,SBT2050,2,4,,1,1750,2.49986,-0.06247,0,198.501,25.3,
1439,1,SBT2050,2,4,,1,1909,2.49998,-0.040211,0,200.735,25.3,
1439,1,SBT2050,2,4,,1,2068,2.50005,-0.026206,0,202.172,25.2,
1439,1,SBT2050,2,4,,1,2227,2.49998,-0.018333,0,203.135,25.2,
1439,1,SBT2050,2,4,,1,2386,2.50005,-0.014533,0,203.854,25.2,
1439,1,SBT2050,2,4,,1,2545,2.5,-0.012552,0,204.449,25.2,
1439,1,SBT2050,2,4,,1,2704,2.499868,-0.011061,0,204.973,25.2,
1439,1,SBT2050,2,4,,2,2862,3.1553,2.9363,9.364,205.415,25.3,
1439,1,SBT2050,2,4,,2,3021,3.59907,2.9361,139.036,205.415,26.5,
1439,1,SBT2050,2,4,,2,3180,3.63694,2.9357,268.707,205.415,27.8,
1439,1,SBT2050,2,4,,2,3339,3.670428,2.9359,398.378,205.415,28.2,
1439,1,SBT2050,2,4,,2,3498,3.69482,2.9361,528.049,205.415,28.2,
1439,1,SBT2050,2,4,,2,3657,3.71905,2.9365,657.721,205.415,28.2,
1439,1,SBT2050,2,4,,2,3816,3.74636,2.9357,787.393,205.415,28.3,
1439,1,SBT2050,2,4,,2,3975,3.77372,2.9363,917.064,205.415,28.5,
1439,1,SBT2050,2,4,,2,4134,3.80379,2.9357,1046.736,205.415,28.4,
1439,1,SBT2050,2,4,,2,4293,3.83675,2.936,1176.407,205.415,28.3,
1439,1,SBT2050,2,4,,2,4452,3.87428,2.9363,1306.078,205.415,28.5,
1439,1,SBT2050,2,4,,2,4611,3.91642,2.9357,1435.75,205.415,28.6,
1439,1,SBT2050,2,4,,2,4770,3.961418,2.9363,1565.422,205.415,28.8,
1439,1,SBT2050,2,4,,2,4929,4.00755,2.9353,1695.093,205.415,28.8,
1439,1,SBT2050,2,4,,2,5088,4.05389,2.9356,1824.764,205.415,28.9,
1439,1,SBT2050,2,4,,2,5247,4.10106,2.9361,1954.435,205.415,29.1,
1439,1,SBT2050,2,4,,2,5406,4.14955,2.9358,2084.106,205.415,29.2,
1439,1,SBT2050,2,4,,2,5565,4.15001,2.2325,2196.86,205.415,28.9,
1439,1,SBT2050,2,4,,2,5724,4.15009,1.7227,2283.65,205.415,28.3,
1439,1,SBT2050,2,4,,2,5883,4.150034,1.3481,2350.926,205.415,27.6,
1439,1,SBT2050,2,4,,2,6042,4.15014,1.0748,2404.005,205.415,27,
1439,1,SBT2050,2,4,,2,6201,4.150034,0.882,2446.976,205.415,26.6,
1439,1,SBT2050,2,4,,2,6360,4.15001,0.7364,2482.55,205.415,26.2,
1439,1,SBT2050,2,4,,2,6519,4.15021,0.6264,2512.587,205.415,26,
1439,1,SBT2050,2,4,,2,6678,4.1502,0.5429,2538.368,205.415,25.8,
1439,1,SBT2050,2,4,,2,6837,4.14999,0.47492,2560.822,205.415,25.7,
1439,1,SBT2050,2,4,,2,6996,4.15009,0.42213,2580.543,205.415,25.6,
1439,1,SBT2050,2,4,,2,7155,4.15009,0.37421,2598.077,205.415,25.4,
1439,1,SBT2050,2,4,,2,7314,4.150058,0.3353,2613.737,205.415,25.4,
1439,1,SBT2050,2,4,,2,7473,4.150034,0.30213,2627.805,205.415,25.3,
1439,1,SBT2050,2,4,,2,7632,4.150046,0.27342,2640.525,205.415,25.3,
1439,1,SBT2050,2,4,,2,7791,4.15011,0.24827,2652.051,205.415,25.2,
1439,1,SBT2050,2,4,,2,7950,4.15001,0.227,2662.529,205.415,25.2,
1439,1,SBT2050,2,4,,2,8109,4.15008,0.2055,2672.063,205.415,25.2,
1439,1,SBT2050,2,4,,2,8268,4.15018,0.18946,2680.786,205.415,25.2,
1439,1,SBT2050,2,4,,2,8427,4.15014,0.172,2688.762,205.415,25.1,
1439,1,SBT2050,2,4,,2,8586,4.150058,0.15746,2696.058,205.415,25.1,
1439,1,SBT2050,2,4,,2,8745,4.15012,0.14577,2702.764,205.415,25.1,
1439,1,SBT2050,2,4,,2,8904,4.15009,0.13299,2708.899,205.415,25.1,
1439,1,SBT2050,2,4,,2,9063,4.15009,0.12255,2714.554,205.415,25.1,
1439,1,SBT2050,2,4,,2,9222,4.14997,0.11262,2719.754,205.415,25.1,
1439,1,SBT2050,2,4,,2,9381,4.14988,0.10375,2724.521,205.415,25.1,
1439,1,SBT2050,2,4,,2,9540,4.15001,0.09588,2728.926,205.415,25.1,
1439,1,SBT2050,2,4,,2,9699,4.1498,0.08832,2732.993,205.415,25,
1439,1,SBT2050,2,4,,2,9858,4.15007,0.08228,2736.759,205.415,25.1,
1439,1,SBT2050,2,4,,2,10017,4.14994,0.07569,2740.223,205.415,25,
1439,1,SBT2050,2,4,,2,10176,4.14995,0.07128,2743.452,205.415,25,
1439,1,SBT2050,2,4,,2,10335,4.15009,0.06465,2746.443,205.415,25.1,
1439,1,SBT2050,2,4,,2,10494,4.14997,0.06141,2749.213,205.415,25,
1439,1,SBT2050,2,4,,2,10653,4.15021,0.05618,2751.803,205.415,25,
1439,1,SBT2050,2,4,,2,10812,4.1498,0.05227,2754.204,205.415,25,
1439,1,SBT2050,2,4,,2,10971,4.1499,0.04942,2756.44,205.415,25,
1439,1,SBT2050,2,4,,2,11130,4.14997,0.045715,2758.512,205.415,25,
1439,1,SBT2050,2,4,,2,11289,4.14996,0.042936,2760.47,205.415,25,
1439,1,SBT2050,2,4,,2,11448,4.14989,0.039915,2762.292,205.415,25,
1439,1,SBT2050,2,4,,2,11607,4.1497,0.037759,2763.991,205.415,25,
1439,1,SBT2050,2,4,,2,11766,4.15039,0.034736,2765.597,205.415,25,
1439,1,SBT2050,2,4,,2,11925,4.1499,0.033351,2767.099,205.415,25,
1439,1,SBT2050,2,4,,2,12084,4.150296,0.030935,2768.514,205.415,25,
1439,1,SBT2050,2,4,,2,12243,4.14993,0.029142,2769.842,205.415,25,
1439,1,SBT2050,2,4,,2,12402,4.14978,0.026719,2771.088,205.415,25,
1439,1,SBT2050,2,4,,2,12561,4.15021,0.02586,2772.258,205.415,25,
1439,1,SBT2050,2,4,,2,12720,4.14996,0.023894,2773.368,205.415,25,
1439,1,SBT2050,2,4,,2,12879,4.15008,0.023862,2774.421,205.415,25,
1439,1,SBT2050,2,4,,2,13038,4.14982,0.02121,2775.406,205.415,25,
1439,1,SBT2050,2,4,,2,13197,4.15011,0.020004,2776.321,205.415,25,
1439,1,SBT2050,2,4,,2,13356,4.14996,0.018589,2777.194,205.415,25,
1439,1,SBT2050,2,4,,2,13515,4.150034,0.018084,2778.016,205.415,25,
1439,1,SBT2050,2,4,,2,13674,4.15,0.01691,2778.812,205.415,25,
1439,1,SBT2050,2,4,,2,13833,4.14986,0.016828,2779.566,205.415,25,
1439,1,SBT2050,2,4,,2,13992,4.15011,0.01557,2780.294,205.415,25,
1439,1,SBT2050,2,4,,2,14151,4.14995,0.014546,2780.966,205.415,25,
1439,1,SBT2050,2,4,,2,14310,4.15013,0.014304,2781.605,205.415,25.1,
1439,1,SBT2050,2,4,,2,14469,4.15014,0.013934,2782.211,205.415,25,
1439,1,SBT2050,2,4,,2,14628,4.14994,0.012887,2782.795,205.415,25.1,
1439,1,SBT2050,2,4,,2,14787,4.150058,0.011759,2783.354,205.415,25,
1439,1,SBT2050,2,4,,2,14946,4.150046,0.012593,2783.886,205.415,25,
1439,1,SBT2050,2,4,,2,15105,4.15015,0.011498,2784.398,205.415,25,
1439,1,SBT2050,2,4,,2,15264,4.150022,0.010993,2784.887,205.415,25,
1439,1,SBT2050,2,4,,3,15422,4.14794,0,2785.114,205.415,25,
1439,1,SBT2050,2,4,,3,15581,4.1474,0,2785.114,205.415,25,
1439,1,SBT2050,2,4,,3,15740,4.147152,0,2785.114,205.415,25,
1439,1,SBT2050,2,4,,3,15899,4.14701,0,2785.114,205.415,25,
1439,1,SBT2050,2,4,,3,16058,4.14665,0,2785.114,205.415,25,
1439,1,SBT2050,2,4,,3,16217,4.14669,0,2785.114,205.415,25,
1439,1,SBT2050,2,4,,3,16376,4.14639,0,2785.114,205.415,25,
1439,1,SBT2050,2,4,,3,16535,4.14603,0,2785.114,205.415,25,
1439,1,SBT2050,2,4,,3,16694,4.14585,0,2785.114,205.415,25,
1439,1,SBT2050,2,4,,3,16853,4.14599,0,2785.114,205.415,25.1,
1439,1,SBT2050,2,4,,3,17012,4.14578,0,2785.114,205.415,25,
1439,1,SBT2050,2,4,,4,17170,3.89181,-2.936,2785.114,228.494,25.2,
1439,1,SBT2050,2,4,,4,17329,3.82857,-2.9359,2785.114,358.166,26.7,
1439,1,SBT2050,2,4,,4,17488,3.80309,-2.9356,2785.114,487.837,27.5,
1439,1,SBT2050,2,4,,4,17647,3.768002,-2.9359,2785.114,617.508,27.8,
1439,1,SBT2050,2,4,,4,17806,3.72888,-2.9365,2785.114,747.18,27.8,
1439,1,SBT2050,2,4,,4,17965,3.68839,-2.9361,2785.114,876.852,27.7,
1439,1,SBT2050,2,4,,4,18124,3.64704,-2.9362,2785.114,1006.523,27.7,
1439,1,SBT2050,2,4,,4,18283,3.6028,-2.9361,2785.114,1136.195,27.8,
1439,1,SBT2050,2,4,,4,18442,3.55657,-2.9358,2785.114,1265.866,27.8,
1439,1,SBT2050,2,4,,4,18601,3.51109,-2.9362,2785.114,1395.538,27.9,
1439,1,SBT2050,2,4,,4,18760,3.467046,-2.936,2785.114,1525.209,28,
1439,1,SBT2050,2,4,,4,18919,3.42692,-2.9362,2785.114,1654.881,28,
1439,1,SBT2050,2,4,,4,19078,3.38874,-2.936,2785.114,1784.552,28.1,
1439,1,SBT2050,2,4,,4,19237,3.3503,-2.9365,2785.114,1914.224,28.3,
1439,1,SBT2050,2,4,,4,19396,3.30901,-2.936,2785.114,2043.895,28.5,
1439,1,SBT2050,2,4,,4,19555,3.25981,-2.9359,2785.114,2173.567,28.6,
1439,1,SBT2050,2,4,,4,19714,3.19739,-2.9362,2785.114,2303.238,29,
1439,1,SBT2050,2,4,,4,19873,3.11119,-2.9363,2785.114,2432.91,29.5,
1439,1,SBT2050,2,4,,4,20032,2.98251,-2.9358,2785.114,2562.581,30.3,
1439,1,SBT2050,2,4,,4,20191,2.75802,-2.9356,2785.114,2692.253,31.7,
1439,1,SBT2050,2,4,,4,20350,2.49959,-2.1973,2785.114,2814.718,34.1,
1439,1,SBT2050,2,4,,4,20509,2.499819,-1.1826,2785.114,2887.19,33.4,
1439,1,SBT2050,2,4,,4,20668,2.49972,-0.6563,2785.114,2926.452,31.3,
1439,1,SBT2050,2,4,,4,20827,2.4998,-0.39072,2785.114,2948.987,29.4,
1439,1,SBT2050,2,4,,4,20986,2.49975,-0.24418,2785.114,2962.664,27.9,
1439,1,SBT2050,2,4,,4,21145,2.4999,-0.15917,2785.114,2971.426,26.9,
1439,1,SBT2050,2,4,,4,21304,2.49976,-0.10361,2785.114,2977.135,26.3,
1439,1,SBT2050,2,4,,4,21463,2.4999,-0.0658,2785.114,2980.82,25.8,
1439,1,SBT2050,2,4,,4,21622,2.49989,-0.040777,2785.114,2983.136,25.5,
1439,1,SBT2050,2,4,,4,21781,2.49994,-0.026547,2785.114,2984.591,25.4,
1439,1,SBT2050,2,4,,4,21940,2.4999,-0.019219,2785.114,2985.584,25.3,
1439,1,SBT2050,2,4,,4,22099,2.50011,-0.015757,2785.114,2986.345,25.2,
1439,1,SBT2050,2,4,,4,22258,2.499831,-0.013528,2785.114,2986.988,25.2,
1439,1,SBT2050,2,4,,4,22417,2.49985,-0.012382,2785.114,2987.563,25.1,
1439,1,SBT2050,2,4,,4,22576,2.50008,-0.011535,2785.114,2988.09,25.1,
1439,1,SBT2050,2,4,,4,22735,2.49994,-0.010624,2785.114,2988.579,25.1,
1439,1,SBT2050,2,4,,5,22893,2.51298,0,2785.114,2988.996,25.1,
1439,1,SBT2050,2,4,,5,23052,2.59106,0,2785.114,2988.996,25.1,
1439,1,SBT2050,2,4,,5,23211,2.64446,0,2785.114,2988.996,25,
1439,1,SBT2050,2,4,,5,23370,2.6824,0,2785.114,2988.996,25.1,
1439,1,SBT2050,2,4,,5,23529,2.71017,0,2785.114,2988.996,25,
1439,1,SBT2050,2,4,,5,23688,2.7318,0,2785.114,2988.996,25.1,
1439,1,SBT2050,2,4,,5,23847,2.74864,0,2785.114,2988.996,25.1,
1439,1,SBT2050,2,4,,5,24006,2.76188,0,2785.114,2988.996,25.1,
1439,1,SBT2050,2,4,,5,24165,2.772566,0,2785.114,2988.996,25.1,
1439,1,SBT2050,2,4,,5,24324,2.781556,0,2785.114,2988.996,25.1,
1439,1,SBT2050,2,4,,5,24483,2.78941,0,2785.114,2988.996,25,
1439,1,SBT2050,2,4,,5,24642,2.79613,0,2785.114,2988.996,25,
1439,1,SBT2050,2,4,,5,24679.416,2.797507,-0.000101,2785.114,2988.996,,

File: Test1441.csv
Request Year:,2018,,,,,,,,,,,,
Test:,1441,,,,,,,,,,,,
Test Description:,,,,,,,,,,,,,
TestRegime Name:,Aging_Performance,,,,,,,,,,,,
TestRegime Suffix:,SHP_LC,,,,,,,,,,,,
TestRegime CellSize:,18650,,,,,,,,,,,,
TestRegime Version:,1,,,,,,,,,,,,
Number Of Cells:,1,,,,,,,,,,,,
LotID:,,,,,,,,,,,,,
Lot Description:,,,,,,,,,,,,,
Date Made:,1/21/2003 12:00 AM,,,,,,,,,,,,
Origin:,Other,,,,,,,,,,,,
Requestor:,Admin,,,,,,,,,,,,
Product ID:,Default product,,,,,,,,,,,,
Storage Temp:,R.T./AMB,,,,,,,,,,,,
Storage Delay:,0 days,,,,,,,,,,,,
Test Temp:,R.T./AMB,,,,,,,,,,,,
Start Time:,4/2/2018 1:53 PM,,,,,,,,,,,,
End Time:,4/2/2018 9:12 PM,,,,,,,,,,,,
Operator Instructions:,,,,,,,,,,,,,
Test,Cell,Rack,Shelf,Position,Cell ID,Step,Total Time (Seconds),Voltage (V),Current (A),Charge Capacity (mAh),Discharge Capacity (mAh),TC1 (Â°C),
1441,1,SBT2050,2,4,,0,1,3.34502,0,0,0,25.1,
1441,1,SBT2050,2,4,,0,172,3.344777,0,0,0,25.1,
1441,1,SBT2050,2,4,,1,343,2.49934,-1.9286,0,31.405,26.3,
1441,1,SBT2050,2,4,,1,514,2.4998,-1.0175,0,95.297,28.7,
1441,1,SBT2050,2,4,,1,685,2.4998,-0.6526,0,134.078,28.7,
1441,1,SBT2050,2,4,,1,856,2.499839,-0.43914,0,159.6,28.1,
1441,1,SBT2050,2,4,,1,1027,2.49993,-0.30892,0,177.113,27.3,
1441,1,SBT2050,2,4,,1,1198,2.499815,-0.2261,0,189.673,26.7,
1441,1,SBT2050,2,4,,1,1369,2.4999,-0.17138,0,199.03,26.3,
1441,1,SBT2050,2,4,,1,1540,2.49989,-0.13063,0,206.15,25.9,
1441,1,SBT2050,2,4,,1,1711,2.5001,-0.09979,0,211.586,25.7,
1441,1,SBT2050,2,4,,1,1882,2.4999,-0.07528,0,215.718,25.5,
1441,1,SBT2050,2,4,,1,2053,2.49999,-0.05532,0,218.804,25.4,
1441,1,SBT2050,2,4,,1,2224,2.500113,-0.040057,0,221.053,25.3,
1441,1,SBT2050,2,4,,1,2395,2.499958,-0.028521,0,222.663,25.2,
1441,1,SBT2050,2,4,,1,2566,2.50008,-0.020494,0,223.814,25.2,
1441,1,SBT2050,2,4,,1,2737,2.49997,-0.015519,0,224.661,25.1,
1441,1,SBT2050,2,4,,1,2908,2.50002,-0.012622,0,225.325,25.1,
1441,1,SBT2050,2,4,,1,3079,2.499982,-0.010866,0,225.88,25.1,
1441,1,SBT2050,2,4,,2,3249,3.52889,2.9361,75.448,226.106,25.6,
1441,1,SBT2050,2,4,,2,3420,3.635792,2.9363,214.905,226.106,27.2,
1441,1,SBT2050,2,4,,2,3591,3.67674,2.9363,354.363,226.106,28.3,
1441,1,SBT2050,2,4,,2,3762,3.70522,2.9364,493.821,226.106,28.6,
1441,1,SBT2050,2,4,,2,3933,3.7308,2.936,633.279,226.106,28.6,
1441,1,SBT2050,2,4,,2,4104,3.760336,2.9364,772.738,226.106,28.6,
1441,1,SBT2050,2,4,,2,4275,3.79085,2.9353,912.196,226.106,28.6,
1441,1,SBT2050,2,4,,2,4446,3.82405,2.9361,1051.653,226.106,28.6,
1441,1,SBT2050,2,4,,2,4617,3.862644,2.9362,1191.111,226.106,28.7,
1441,1,SBT2050,2,4,,2,4788,3.9064,2.936,1330.568,226.106,28.8,
1441,1,SBT2050,2,4,,2,4959,3.954198,2.9363,1470.026,226.106,29,
1441,1,SBT2050,2,4,,2,5130,4.00353,2.9358,1609.484,226.106,29.2,
1441,1,SBT2050,2,4,,2,5301,4.05372,2.9358,1748.942,226.106,29.2,
1441,1,SBT2050,2,4,,2,5472,4.10471,2.9358,1888.4,226.106,29.3,
1441,1,SBT2050,2,4,,2,5643,4.15009,2.7973,2027.392,226.106,29.5,
1441,1,SBT2050,2,4,,2,5814,4.15034,2.1464,2144.034,226.106,29.1,
1441,1,SBT2050,2,4,,2,5985,4.15011,1.6564,2233.844,226.106,28.4,
1441,1,SBT2050,2,4,,2,6156,4.15016,1.297,2303.521,226.106,27.6,
1441,1,SBT2050,2,4,,2,6327,4.1503,1.0394,2358.702,226.106,27,
1441,1,SBT2050,2,4,,2,6498,4.15007,0.8519,2403.446,226.106,26.6,
1441,1,SBT2050,2,4,,2,6669,4.14997,0.7139,2440.487,226.106,26.2,
1441,1,SBT2050,2,4,,2,6840,4.15012,0.6072,2471.72,226.106,26,
1441,1,SBT2050,2,4,,2,7011,4.150026,0.5216,2498.438,226.106,25.8,
1441,1,SBT2050,2,4,,2,7182,4.1501,0.45527,2521.604,226.106,25.7,
1441,1,SBT2050,2,4,,2,7353,4.15006,0.40173,2541.901,226.106,25.5,
1441,1,SBT2050,2,4,,2,7524,4.15013,0.357,2559.869,226.106,25.5,
1441,1,SBT2050,2,4,,2,7695,4.15004,0.31851,2575.892,226.106,25.4,
1441,1,SBT2050,2,4,,2,7866,4.14995,0.28789,2590.287,226.106,25.4,
1441,1,SBT2050,2,4,,2,8037,4.14988,0.26034,2603.297,226.106,25.3,
1441,1,SBT2050,2,4,,2,8208,4.15014,0.23666,2615.092,226.106,25.3,
1441,1,SBT2050,2,4,,2,8379,4.14992,0.21673,2625.835,226.106,25.2,
1441,1,SBT2050,2,4,,2,8550,4.15018,0.19811,2635.659,226.106,25.3,
1441,1,SBT2050,2,4,,2,8721,4.15006,0.1813,2644.659,226.106,25.2,
1441,1,SBT2050,2,4,,2,8892,4.150026,0.16677,2652.934,226.106,25.2,
1441,1,SBT2050,2,4,,2,9063,4.14989,0.15386,2660.552,226.106,25.2,
1441,1,SBT2050,2,4,,2,9234,4.14999,0.14141,2667.577,226.106,25.2,
1441,1,SBT2050,2,4,,2,9405,4.15019,0.13171,2674.054,226.106,25.2,
1441,1,SBT2050,2,4,,2,9576,4.14997,0.12131,2680.043,226.106,25.2,
1441,1,SBT2050,2,4,,2,9747,4.15023,0.112,2685.572,226.106,25.1,
1441,1,SBT2050,2,4,,2,9918,4.15013,0.10381,2690.716,226.106,25.1,
1441,1,SBT2050,2,4,,2,10089,4.14988,0.09658,2695.484,226.106,25.1,
1441,1,SBT2050,2,4,,2,10260,4.150014,0.08961,2699.903,226.106,25.1,
1441,1,SBT2050,2,4,,2,10431,4.15009,0.08345,2704.013,226.106,25.1,
1441,1,SBT2050,2,4,,2,10602,4.15005,0.07772,2707.849,226.106,25.1,
1441,1,SBT2050,2,4,,2,10773,4.15016,0.07213,2711.398,226.106,25,
1441,1,SBT2050,2,4,,2,10944,4.15004,0.06703,2714.715,226.106,25.1,
1441,1,SBT2050,2,4,,2,11115,4.14997,0.0635,2717.809,226.106,25,
1441,1,SBT2050,2,4,,2,11286,4.15007,0.05757,2720.689,226.106,25.1,
1441,1,SBT2050,2,4,,2,11457,4.14994,0.05497,2723.366,226.106,25,
1441,1,SBT2050,2,4,,2,11628,4.14994,0.05157,2725.886,226.106,25.1,
1441,1,SBT2050,2,4,,2,11799,4.14991,0.04781,2728.246,226.106,25,
1441,1,SBT2050,2,4,,2,11970,4.15013,0.045498,2730.468,226.106,25.1,
1441,1,SBT2050,2,4,,2,12141,4.15005,0.042385,2732.547,226.106,25,
1441,1,SBT2050,2,4,,2,12312,4.150002,0.039928,2734.512,226.106,25.1,
1441,1,SBT2050,2,4,,2,12483,4.14978,0.037234,2736.344,226.106,25,
1441,1,SBT2050,2,4,,2,12654,4.14987,0.03549,2738.055,226.106,25,
1441,1,SBT2050,2,4,,2,12825,4.14995,0.033419,2739.686,226.106,25.1,
1441,1,SBT2050,2,4,,2,12996,4.15014,0.031414,2741.213,226.106,25,
1441,1,SBT2050,2,4,,2,13167,4.14981,0.029915,2742.656,226.106,25.1,
1441,1,SBT2050,2,4,,2,13338,4.15011,0.027859,2744.035,226.106,25,
1441,1,SBT2050,2,4,,2,13509,4.15007,0.026416,2745.337,226.106,25.1,
1441,1,SBT2050,2,4,,2,13680,4.14987,0.025376,2746.56,226.106,25.1,
1441,1,SBT2050,2,4,,2,13851,4.150026,0.023749,2747.721,226.106,25,
1441,1,SBT2050,2,4,,2,14022,4.14989,0.022422,2748.824,226.106,25.1,
1441,1,SBT2050,2,4,,2,14193,4.14992,0.021802,2749.884,226.106,25,
1441,1,SBT2050,2,4,,2,14364,4.15009,0.020287,2750.891,226.106,25,
1441,1,SBT2050,2,4,,2,14535,4.15013,0.018964,2751.834,226.106,25.1,
1441,1,SBT2050,2,4,,2,14706,4.1498,0.01909,2752.731,226.106,25,
1441,1,SBT2050,2,4,,2,14877,4.14953,0.018026,2753.583,226.106,25,
1441,1,SBT2050,2,4,,2,15048,4.15016,0.016519,2754.408,226.106,25.1,
1441,1,SBT2050,2,4,,2,15219,4.15019,0.016355,2755.184,226.106,25,
1441,1,SBT2050,2,4,,2,15390,4.150014,0.015581,2755.929,226.106,25,
1441,1,SBT2050,2,4,,2,15561,4.14994,0.014488,2756.634,226.106,25,
1441,1,SBT2050,2,4,,2,15732,4.15005,0.014397,2757.322,226.106,25,
1441,1,SBT2050,2,4,,2,15903,4.14995,0.013018,2757.965,226.106,25,
1441,1,SBT2050,2,4,,2,16074,4.150002,0.013365,2758.579,226.106,25.1,
1441,1,SBT2050,2,4,,2,16245,4.15035,0.011744,2759.184,226.106,25.1,
1441,1,SBT2050,2,4,,2,16416,4.15011,0.012184,2759.746,226.106,25,
1441,1,SBT2050,2,4,,2,16587,4.150014,0.010878,2760.294,226.106,25.1,
1441,1,SBT2050,2,4,,2,16758,4.15023,0.010896,2760.812,226.106,25,
1441,1,SBT2050,2,4,,3,16928,4.14789,0,2760.984,226.106,25,
1441,1,SBT2050,2,4,,3,17099,4.14704,0,2760.984,226.106,25.1,
1441,1,SBT2050,2,4,,3,17270,4.14663,0,2760.984,226.106,25,
1441,1,SBT2050,2,4,,3,17441,4.14643,0,2760.984,226.106,25,
1441,1,SBT2050,2,4,,3,17612,4.14615,0,2760.984,226.106,25,
1441,1,SBT2050,2,4,,3,17783,4.14575,0,2760.984,226.106,25,
1441,1,SBT2050,2,4,,3,17954,4.14595,0,2760.984,226.106,25,
1441,1,SBT2050,2,4,,3,18125,4.145384,0,2760.984,226.106,25,
1441,1,SBT2050,2,4,,3,18296,4.14582,0,2760.984,226.106,25,
1441,1,SBT2050,2,4,,3,18467,4.14536,0,2760.984,226.106,25,
1441,1,SBT2050,2,4,,4,18637,3.88244,-2.9356,2760.984,242.882,25.2,
1441,1,SBT2050,2,4,,4,18808,3.80189,-2.936,2760.984,382.34,26.9,
1441,1,SBT2050,2,4,,4,18979,3.774608,-2.9364,2760.984,521.798,27.7,
1441,1,SBT2050,2,4,,4,19150,3.73897,-2.9358,2760.984,661.256,28.1,
1441,1,SBT2050,2,4,,4,19321,3.69665,-2.9358,2760.984,800.714,28,
1441,1,SBT2050,2,4,,4,19492,3.6529,-2.9358,2760.984,940.172,28,
1441,1,SBT2050,2,4,,4,19663,3.60622,-2.9362,2760.984,1079.63,28,
1441,1,SBT2050,2,4,,4,19834,3.5572,-2.936,2760.984,1219.087,28.1,
1441,1,SBT2050,2,4,,4,20005,3.50758,-2.9362,2760.984,1358.545,28.2,
1441,1,SBT2050,2,4,,4,20176,3.45939,-2.9362,2760.984,1498.003,28.3,
1441,1,SBT2050,2,4,,4,20347,3.414554,-2.9356,2760.984,1637.461,28.3,
1441,1,SBT2050,2,4,,4,20518,3.37103,-2.9359,2760.984,1776.919,28.4,
1441,1,SBT2050,2,4,,4,20689,3.32679,-2.9357,2760.984,1916.378,28.6,
1441,1,SBT2050,2,4,,4,20860,3.27752,-2.9362,2760.984,2055.835,28.8,
1441,1,SBT2050,2,4,,4,21031,3.21742,-2.936,2760.984,2195.293,29.1,
1441,1,SBT2050,2,4,,4,21202,3.13802,-2.9357,2760.984,2334.751,29.6,
1441,1,SBT2050,2,4,,4,21373,3.02495,-2.9362,2760.984,2474.209,30.3,
1441,1,SBT2050,2,4,,4,21544,2.84447,-2.9362,2760.984,2613.667,31.5,
1441,1,SBT2050,2,4,,4,21715,2.49965,-2.7757,2760.984,2752.944,33.8,
1441,1,SBT2050,2,4,,4,21886,2.49977,-1.412,2760.984,2847.47,34.1,
1441,1,SBT2050,2,4,,4,22057,2.49973,-0.7685,2760.984,2897.444,31.9,
1441,1,SBT2050,2,4,,4,22228,2.499809,-0.45587,2760.984,2925.693,29.8,
1441,1,SBT2050,2,4,,4,22399,2.49976,-0.29971,2760.984,2943.218,28.1,
1441,1,SBT2050,2,4,,4,22570,2.49976,-0.21113,2760.984,2955.186,27.1,
1441,1,SBT2050,2,4,,4,22741,2.49979,-0.15378,2760.984,2963.77,26.5,
1441,1,SBT2050,2,4,,4,22912,2.499976,-0.11256,2760.984,2970.043,26.1,
1441,1,SBT2050,2,4,,4,23083,2.5,-0.08254,2760.984,2974.642,25.8,
1441,1,SBT2050,2,4,,4,23254,2.499964,-0.06021,2760.984,2978.005,25.6,
1441,1,SBT2050,2,4,,4,23425,2.50014,-0.043239,2760.984,2980.439,25.4,
1441,1,SBT2050,2,4,,4,23596,2.50001,-0.03109,2760.984,2982.19,25.3,
1441,1,SBT2050,2,4,,4,23767,2.49986,-0.02299,2760.984,2983.465,25.2,
1441,1,SBT2050,2,4,,4,23938,2.50005,-0.017148,2760.984,2984.41,25.2,
1441,1,SBT2050,2,4,,4,24109,2.50006,-0.013627,2760.984,2985.139,25.1,
1441,1,SBT2050,2,4,,4,24280,2.499964,-0.011744,2760.984,2985.738,25.1,
1441,1,SBT2050,2,4,,4,24451,2.50021,-0.010574,2760.984,2986.261,25.1,
1441,1,SBT2050,2,4,,5,24621,2.56986,0,2760.984,2986.384,25.1,
1441,1,SBT2050,2,4,,5,24792,2.63068,0,2760.984,2986.384,25,
1441,1,SBT2050,2,4,,5,24963,2.673496,0,2760.984,2986.384,25.1,
1441,1,SBT2050,2,4,,5,25134,2.704227,0,2760.984,2986.384,25.1,
1441,1,SBT2050,2,4,,5,25305,2.72748,0,2760.984,2986.384,25,
1441,1,SBT2050,2,4,,5,25476,2.74501,0,2760.984,2986.384,25,
1441,1,SBT2050,2,4,,5,25647,2.75958,0,2760.984,2986.384,25.1,
1441,1,SBT2050,2,4,,5,25818,2.77107,0,2760.984,2986.384,25,
1441,1,SBT2050,2,4,,5,25989,2.78008,0,2760.984,2986.384,25.1,
1441,1,SBT2050,2,4,,5,26160,2.78834,0,2760.984,2986.384,25.1,
1441,1,SBT2050,2,4,,5,26294.197,2.79388,-9.9E-05,2760.984,2986.384,,