Folder: OR-RG_ExpRes/1C (part 4)

File: Test1499.csv
Request Year:,2018,,,,,,,,,,,,
Test:,1499,,,,,,,,,,,,
Test Description:,,,,,,,,,,,,,
TestRegime Name:,Aging_Performance,,,,,,,,,,,,
TestRegime Suffix:,SHP_LC,,,,,,,,,,,,
TestRegime CellSize:,18650,,,,,,,,,,,,
TestRegime Version:,1,,,,,,,,,,,,
Number Of Cells:,1,,,,,,,,,,,,
LotID:,,,,,,,,,,,,,
Lot Description:,,,,,,,,,,,,,
Date Made:,1/21/2003 12:00 AM,,,,,,,,,,,,
Origin:,Other,,,,,,,,,,,,
Requestor:,Admin,,,,,,,,,,,,
Product ID:,Default product,,,,,,,,,,,,
Storage Temp:,R.T./AMB,,,,,,,,,,,,
Storage Delay:,0 days,,,,,,,,,,,,
Test Temp:,R.T./AMB,,,,,,,,,,,,
Start Time:,4/13/2018 9:43 AM,,,,,,,,,,,,
End Time:,4/13/2018 6:36 PM,,,,,,,,,,,,
Operator Instructions:,,,,,,,,,,,,,
Test,Cell,Rack,Shelf,Position,Cell ID,Step,Total Time (Seconds),Voltage (V),Current (A),Charge Capacity (mAh),Discharge Capacity (mAh),TC1 (Â°C),
1499,1,SBT2050,2,4,,0,1,3.35308,0,0,0,24.4,
1499,1,SBT2050,2,4,,0,206,3.35326,0,0,0,24.7,
1499,1,SBT2050,2,4,,1,411,2.49991,-1.4901,0,66.105,27.6,
1499,1,SBT2050,2,4,,1,616,2.499695,-0.7893,0,128.146,28.6,
1499,1,SBT2050,2,4,,1,821,2.49978,-0.49,0,163.583,28,
1499,1,SBT2050,2,4,,1,1026,2.49991,-0.33536,0,186.61,27.2,
1499,1,SBT2050,2,4,,1,1231,2.49993,-0.24853,0,203.041,26.4,
1499,1,SBT2050,2,4,,1,1436,2.49979,-0.195,0,215.561,26,
1499,1,SBT2050,2,4,,1,1641,2.499993,-0.15867,0,225.57,25.8,
1499,1,SBT2050,2,4,,1,1846,2.4999,-0.13127,0,233.799,25.8,
1499,1,SBT2050,2,4,,1,2051,2.50003,-0.11017,0,240.648,25.6,
1499,1,SBT2050,2,4,,1,2256,2.5,-0.09313,0,246.414,25.5,
1499,1,SBT2050,2,4,,1,2461,2.499981,-0.07899,0,251.296,25.4,
1499,1,SBT2050,2,4,,1,2666,2.50004,-0.06682,0,255.438,25.3,
1499,1,SBT2050,2,4,,1,2871,2.5,-0.05665,0,258.945,25.3,
1499,1,SBT2050,2,4,,1,3076,2.49996,-0.04806,0,261.914,25.3,
1499,1,SBT2050,2,4,,1,3281,2.49981,-0.040439,0,264.421,25.2,
1499,1,SBT2050,2,4,,1,3486,2.499981,-0.03459,0,266.548,25.1,
1499,1,SBT2050,2,4,,1,3691,2.49991,-0.029331,0,268.365,25.1,
1499,1,SBT2050,2,4,,1,3896,2.49989,-0.025238,0,269.918,25.1,
1499,1,SBT2050,2,4,,1,4101,2.499981,-0.021359,0,271.24,25.1,
1499,1,SBT2050,2,4,,1,4306,2.50006,-0.018121,0,272.363,25.1,
1499,1,SBT2050,2,4,,1,4511,2.50002,-0.01506,0,273.308,25.1,
1499,1,SBT2050,2,4,,1,4716,2.50004,-0.012709,0,274.097,25.1,
1499,1,SBT2050,2,4,,1,4921,2.4998,-0.010409,0,274.751,25.1,
1499,1,SBT2050,2,4,,2,5125,3.63437,2.9365,146.467,274.82,26.5,
1499,1,SBT2050,2,4,,2,5330,3.69043,2.9357,313.653,274.82,28.2,
1499,1,SBT2050,2,4,,2,5535,3.73033,2.9358,480.839,274.82,28.9,
1499,1,SBT2050,2,4,,2,5740,3.76099,2.9358,648.025,274.82,29,
1499,1,SBT2050,2,4,,2,5945,3.79634,2.9356,815.211,274.82,29,
1499,1,SBT2050,2,4,,2,6150,3.83413,2.9357,982.398,274.82,29,
1499,1,SBT2050,2,4,,2,6355,3.87827,2.9355,1149.584,274.82,29,
1499,1,SBT2050,2,4,,2,6560,3.93058,2.9356,1316.77,274.82,29.2,
1499,1,SBT2050,2,4,,2,6765,3.98946,2.9359,1483.956,274.82,29.4,
1499,1,SBT2050,2,4,,2,6970,4.05126,2.9357,1651.142,274.82,29.6,
1499,1,SBT2050,2,4,,2,7175,4.11548,2.9364,1818.328,274.82,29.7,
1499,1,SBT2050,2,4,,2,7380,4.14991,2.5169,1979.194,274.82,29.8,
1499,1,SBT2050,2,4,,2,7585,4.15009,1.8948,2103.985,274.82,29,
1499,1,SBT2050,2,4,,2,7790,4.150044,1.4429,2198.231,274.82,28.1,
1499,1,SBT2050,2,4,,2,7995,4.150068,1.1228,2270.783,274.82,27.3,
1499,1,SBT2050,2,4,,2,8200,4.150056,0.8973,2328.001,274.82,26.8,
1499,1,SBT2050,2,4,,2,8405,4.14998,0.7321,2374.16,274.82,26.4,
1499,1,SBT2050,2,4,,2,8610,4.15002,0.606,2412.161,274.82,26.1,
1499,1,SBT2050,2,4,,2,8815,4.14995,0.5113,2443.905,274.82,25.9,
1499,1,SBT2050,2,4,,2,9020,4.15014,0.43794,2470.81,274.82,25.7,
1499,1,SBT2050,2,4,,2,9225,4.14998,0.37835,2493.972,274.82,25.6,
1499,1,SBT2050,2,4,,2,9430,4.15002,0.3318,2514.101,274.82,25.5,
1499,1,SBT2050,2,4,,2,9635,4.15009,0.29088,2531.739,274.82,25.4,
1499,1,SBT2050,2,4,,2,9840,4.14984,0.25879,2547.396,274.82,25.3,
1499,1,SBT2050,2,4,,2,10045,4.14996,0.23174,2561.367,274.82,25.3,
1499,1,SBT2050,2,4,,2,10250,4.14989,0.21015,2573.932,274.82,25.3,
1499,1,SBT2050,2,4,,2,10455,4.15019,0.1907,2585.316,274.82,25.3,
1499,1,SBT2050,2,4,,2,10660,4.150068,0.17352,2595.661,274.82,25.4,
1499,1,SBT2050,2,4,,2,10865,4.150056,0.15898,2605.112,274.82,25.4,
1499,1,SBT2050,2,4,,2,11070,4.15008,0.14541,2613.747,274.82,25.5,
1499,1,SBT2050,2,4,,2,11275,4.14977,0.13379,2621.674,274.82,25.5,
1499,1,SBT2050,2,4,,2,11480,4.14997,0.12423,2628.981,274.82,25.6,
1499,1,SBT2050,2,4,,2,11685,4.15029,0.1127,2635.762,274.82,25.6,
1499,1,SBT2050,2,4,,2,11890,4.14973,0.10571,2641.805,274.82,25.6,
1499,1,SBT2050,2,4,,2,12095,4.14981,0.09792,2647.591,274.82,25.7,
1499,1,SBT2050,2,4,,2,12300,4.14996,0.09026,2652.921,274.82,25.1,
1499,1,SBT2050,2,4,,2,12505,4.150056,0.0841,2657.864,274.82,24.8,
1499,1,SBT2050,2,4,,2,12710,4.15,0.07815,2662.475,274.82,24.9,
1499,1,SBT2050,2,4,,2,12915,4.14996,0.07269,2666.786,274.82,25,
1499,1,SBT2050,2,4,,2,13120,4.15,0.06819,2670.798,274.82,25,
1499,1,SBT2050,2,4,,2,13325,4.14992,0.06409,2674.552,274.82,25,
1499,1,SBT2050,2,4,,2,13530,4.15,0.06015,2678.089,274.82,25.1,
1499,1,SBT2050,2,4,,2,13735,4.15009,0.05672,2681.403,274.82,25.2,
1499,1,SBT2050,2,4,,2,13940,4.15015,0.05292,2684.532,274.82,25.3,
1499,1,SBT2050,2,4,,2,14145,4.14982,0.05019,2687.459,274.82,25.4,
1499,1,SBT2050,2,4,,2,14350,4.14998,0.046456,2690.205,274.82,25.2,
1499,1,SBT2050,2,4,,2,14555,4.14992,0.043875,2692.779,274.82,24.9,
1499,1,SBT2050,2,4,,2,14760,4.15012,0.041385,2695.212,274.82,25,
1499,1,SBT2050,2,4,,2,14965,4.150056,0.039213,2697.513,274.82,25,
1499,1,SBT2050,2,4,,2,15170,4.15018,0.037229,2699.699,274.82,25,
1499,1,SBT2050,2,4,,2,15375,4.150044,0.035501,2701.754,274.82,25,
1499,1,SBT2050,2,4,,2,15580,4.15013,0.033984,2703.708,274.82,25,
1499,1,SBT2050,2,4,,2,15785,4.14987,0.031773,2705.562,274.82,25,
1499,1,SBT2050,2,4,,2,15990,4.15013,0.030282,2707.319,274.82,25,
1499,1,SBT2050,2,4,,2,16195,4.1501,0.028508,2708.982,274.82,25,
1499,1,SBT2050,2,4,,2,16400,4.15009,0.028094,2710.574,274.82,25,
1499,1,SBT2050,2,4,,2,16605,4.14994,0.025993,2712.082,274.82,25,
1499,1,SBT2050,2,4,,2,16810,4.14991,0.025047,2713.526,274.82,25,
1499,1,SBT2050,2,4,,2,17015,4.14984,0.023659,2714.915,274.82,25,
1499,1,SBT2050,2,4,,2,17220,4.15012,0.022864,2716.233,274.82,25,
1499,1,SBT2050,2,4,,2,17425,4.14995,0.021652,2717.503,274.82,25,
1499,1,SBT2050,2,4,,2,17630,4.14984,0.021105,2718.716,274.82,25,
1499,1,SBT2050,2,4,,2,17835,4.14981,0.01983,2719.878,274.82,25.1,
1499,1,SBT2050,2,4,,2,18040,4.1501,0.019274,2720.983,274.82,25,
1499,1,SBT2050,2,4,,2,18245,4.15014,0.018459,2722.047,274.82,25,
1499,1,SBT2050,2,4,,2,18450,4.14988,0.017598,2723.076,274.82,25,
1499,1,SBT2050,2,4,,2,18655,4.15013,0.016906,2724.056,274.82,25.1,
1499,1,SBT2050,2,4,,2,18860,4.14984,0.01595,2725.003,274.82,25,
1499,1,SBT2050,2,4,,2,19065,4.14988,0.015984,2725.918,274.82,25,
1499,1,SBT2050,2,4,,2,19270,4.15012,0.015312,2726.786,274.82,25,
1499,1,SBT2050,2,4,,2,19475,4.14994,0.014734,2727.635,274.82,25,
1499,1,SBT2050,2,4,,2,19680,4.14992,0.014286,2728.458,274.82,25,
1499,1,SBT2050,2,4,,2,19885,4.14983,0.013111,2729.246,274.82,25,
1499,1,SBT2050,2,4,,2,20090,4.15012,0.012484,2729.989,274.82,25.1,
1499,1,SBT2050,2,4,,2,20295,4.150044,0.01227,2730.718,274.82,25.1,
1499,1,SBT2050,2,4,,2,20500,4.1501,0.012687,2731.42,274.82,25,
1499,1,SBT2050,2,4,,2,20705,4.15008,0.011742,2732.095,274.82,25,
1499,1,SBT2050,2,4,,2,20910,4.150044,0.011474,2732.744,274.82,25,
1499,1,SBT2050,2,4,,2,21115,4.15021,0.010943,2733.378,274.82,25,
1499,1,SBT2050,2,4,,3,21319,4.14758,0,2733.711,274.82,25,
1499,1,SBT2050,2,4,,3,21524,4.146272,0,2733.711,274.82,25,
1499,1,SBT2050,2,4,,3,21729,4.14561,0,2733.711,274.82,25,
1499,1,SBT2050,2,4,,3,21934,4.144972,0,2733.711,274.82,25,
1499,1,SBT2050,2,4,,3,22139,4.14475,0,2733.711,274.82,25.1,
1499,1,SBT2050,2,4,,3,22344,4.14446,0,2733.711,274.82,25,
1499,1,SBT2050,2,4,,3,22549,4.14443,0,2733.711,274.82,25,
1499,1,SBT2050,2,4,,3,22754,4.14397,0,2733.711,274.82,25.1,
1499,1,SBT2050,2,4,,3,22959,4.143612,0,2733.711,274.82,25,
1499,1,SBT2050,2,4,,4,23163,3.76388,-2.9361,2733.711,387.479,26.7,
1499,1,SBT2050,2,4,,4,23368,3.72861,-2.9359,2733.711,554.664,28.1,
1499,1,SBT2050,2,4,,4,23573,3.68898,-2.9358,2733.711,721.849,28.6,
1499,1,SBT2050,2,4,,4,23778,3.640524,-2.9361,2733.711,889.035,28.6,
1499,1,SBT2050,2,4,,4,23983,3.586834,-2.9365,2733.711,1056.221,28.7,
1499,1,SBT2050,2,4,,4,24188,3.53029,-2.936,2733.711,1223.406,28.7,
1499,1,SBT2050,2,4,,4,24393,3.47219,-2.936,2733.711,1390.591,28.7,
1499,1,SBT2050,2,4,,4,24598,3.41635,-2.9359,2733.711,1557.777,28.8,
1499,1,SBT2050,2,4,,4,24803,3.36134,-2.9363,2733.711,1724.963,28.9,
1499,1,SBT2050,2,4,,4,25008,3.30409,-2.9359,2733.711,1892.148,29,
1499,1,SBT2050,2,4,,4,25213,3.239796,-2.9361,2733.711,2059.334,29.4,
1499,1,SBT2050,2,4,,4,25418,3.16069,-2.9364,2733.711,2226.519,29.8,
1499,1,SBT2050,2,4,,4,25623,3.05265,-2.9362,2733.711,2393.706,30.6,
1499,1,SBT2050,2,4,,4,25828,2.88659,-2.9361,2733.711,2560.893,31.6,
1499,1,SBT2050,2,4,,4,26033,2.49967,-2.8303,2733.711,2728.015,33.9,
1499,1,SBT2050,2,4,,4,26238,2.49973,-1.2218,2733.711,2834.772,33.8,
1499,1,SBT2050,2,4,,4,26443,2.49981,-0.6292,2733.711,2884.721,31,
1499,1,SBT2050,2,4,,4,26648,2.49979,-0.40181,2733.711,2913.171,28.9,
1499,1,SBT2050,2,4,,4,26853,2.49997,-0.29244,2733.711,2932.655,27.6,
1499,1,SBT2050,2,4,,4,27058,2.499886,-0.22276,2733.711,2947.205,26.9,
1499,1,SBT2050,2,4,,4,27263,2.49998,-0.17373,2733.711,2958.413,26.4,
1499,1,SBT2050,2,4,,4,27468,2.49983,-0.1389,2733.711,2967.269,26,
1499,1,SBT2050,2,4,,4,27673,2.49999,-0.11252,2733.711,2974.397,25.9,
1499,1,SBT2050,2,4,,4,27878,2.49978,-0.0911,2733.711,2980.176,25.6,
1499,1,SBT2050,2,4,,4,28083,2.500029,-0.07443,2733.711,2984.879,25.5,
1499,1,SBT2050,2,4,,4,28288,2.49992,-0.06129,2733.711,2988.731,25.4,
1499,1,SBT2050,2,4,,4,28493,2.50008,-0.05101,2733.711,2991.923,25.3,
1499,1,SBT2050,2,4,,4,28698,2.50008,-0.042411,2733.711,2994.578,25.3,
1499,1,SBT2050,2,4,,4,28903,2.49999,-0.035006,2733.711,2996.78,25.2,
1499,1,SBT2050,2,4,,4,29108,2.50009,-0.028632,2733.711,2998.588,25.2,
1499,1,SBT2050,2,4,,4,29313,2.500053,-0.023401,2733.711,3000.067,25.2,
1499,1,SBT2050,2,4,,4,29518,2.49993,-0.018935,2733.711,3001.273,25.2,
1499,1,SBT2050,2,4,,4,29723,2.500041,-0.015669,2733.711,3002.255,25.1,
1499,1,SBT2050,2,4,,4,29928,2.50002,-0.012775,2733.711,3003.059,25.1,
1499,1,SBT2050,2,4,,4,30133,2.499886,-0.010404,2733.711,3003.721,25.1,
1499,1,SBT2050,2,4,,5,30337,2.58009,0,2733.711,3003.815,25,
1499,1,SBT2050,2,4,,5,30542,2.634864,0,2733.711,3003.815,25.1,
1499,1,SBT2050,2,4,,5,30747,2.670596,0,2733.711,3003.815,25.1,
1499,1,SBT2050,2,4,,5,30952,2.696014,0,2733.711,3003.815,25,
1499,1,SBT2050,2,4,,5,31157,2.714863,0,2733.711,3003.815,25,
1499,1,SBT2050,2,4,,5,31362,2.73012,0,2733.711,3003.815,25.1,
1499,1,SBT2050,2,4,,5,31567,2.74325,0,2733.711,3003.815,25.1,
1499,1,SBT2050,2,4,,5,31772,2.75364,0,2733.711,3003.815,25,
1499,1,SBT2050,2,4,,5,31965.69,2.76243,-9.9E-05,2733.711,3003.815,,

File: Test1501.csv
Request Year:,2018,,,,,,,,,,,,
Test:,1501,,,,,,,,,,,,
Test Description:,,,,,,,,,,,,,
TestRegime Name:,Aging_Performance,,,,,,,,,,,,
TestRegime Suffix:,SHP_LC,,,,,,,,,,,,
TestRegime CellSize:,18650,,,,,,,,,,,,
TestRegime Version:,1,,,,,,,,,,,,
Number Of Cells:,1,,,,,,,,,,,,
LotID:,,,,,,,,,,,,,
Lot Description:,,,,,,,,,,,,,
Date Made:,1/21/2003 12:00 AM,,,,,,,,,,,,
Origin:,Other,,,,,,,,,,,,
Requestor:,Admin,,,,,,,,,,,,
Product ID:,Default product,,,,,,,,,,,,
Storage Temp:,R.T./AMB,,,,,,,,,,,,
Storage Delay:,0 days,,,,,,,,,,,,
Test Temp:,R.T./AMB,,,,,,,,,,,,
Start Time:,4/15/2018 1:05 PM,,,,,,,,,,,,
End Time:,4/15/2018 10:39 PM,,,,,,,,,,,,
Operator Instructions:,,,,,,,,,,,,,
Test,Cell,Rack,Shelf,Position,Cell ID,Step,Total Time (Seconds),Voltage (V),Current (A),Charge Capacity (mAh),Discharge Capacity (mAh),TC1 (Â°C),
1501,1,SBT2050,2,4,,0,1,3.35654,0,0,0,25.1,
1501,1,SBT2050,2,4,,0,225,3.35673,0,0,0,25.1,
1501,1,SBT2050,2,4,,1,449,2.4999,-1.2563,0,76.273,28.3,
1501,1,SBT2050,2,4,,1,673,2.49985,-0.7248,0,135.712,28.8,
1501,1,SBT2050,2,4,,1,897,2.49985,-0.46898,0,172.072,28,
1501,1,SBT2050,2,4,,1,1121,2.499674,-0.32847,0,196.454,27.3,
1501,1,SBT2050,2,4,,1,1345,2.4999,-0.24532,0,214.068,26.7,
1501,1,SBT2050,2,4,,1,1569,2.49986,-0.19203,0,227.563,26.3,
1501,1,SBT2050,2,4,,1,1793,2.5001,-0.15579,0,238.332,26,
1501,1,SBT2050,2,4,,1,2017,2.4999,-0.12814,0,247.123,25.7,
1501,1,SBT2050,2,4,,1,2241,2.50002,-0.10688,0,254.413,25.5,
1501,1,SBT2050,2,4,,1,2465,2.499984,-0.0899,0,260.511,25.4,
1501,1,SBT2050,2,4,,1,2689,2.4999,-0.07488,0,265.621,25.3,
1501,1,SBT2050,2,4,,1,2913,2.49985,-0.06271,0,269.895,25.3,
1501,1,SBT2050,2,4,,1,3137,2.49995,-0.0525,0,273.471,25.2,
1501,1,SBT2050,2,4,,1,3361,2.4999,-0.043903,0,276.464,25.2,
1501,1,SBT2050,2,4,,1,3585,2.499829,-0.03689,0,278.979,25.1,
1501,1,SBT2050,2,4,,1,3809,2.50004,-0.031522,0,281.114,25.1,
1501,1,SBT2050,2,4,,1,4033,2.50001,-0.027095,0,282.937,25.1,
1501,1,SBT2050,2,4,,1,4257,2.49995,-0.023253,0,284.503,25,
1501,1,SBT2050,2,4,,1,4481,2.50003,-0.019919,0,285.847,25.1,
1501,1,SBT2050,2,4,,1,4705,2.499984,-0.017043,0,286.998,25.1,
1501,1,SBT2050,2,4,,1,4929,2.49995,-0.014633,0,287.986,25,
1501,1,SBT2050,2,4,,1,5153,2.49991,-0.012375,0,288.828,24.9,
1501,1,SBT2050,2,4,,1,5377,2.49995,-0.01038,0,289.544,25,
1501,1,SBT2050,2,4,,2,5600,3.64499,2.9361,135.146,289.709,26.3,
1501,1,SBT2050,2,4,,2,5824,3.70899,2.936,317.827,289.709,28.3,
1501,1,SBT2050,2,4,,2,6048,3.7499,2.9359,500.507,289.709,29.1,
1501,1,SBT2050,2,4,,2,6272,3.78579,2.9359,683.188,289.709,29.2,
1501,1,SBT2050,2,4,,2,6496,3.82561,2.9362,865.869,289.709,29.2,
1501,1,SBT2050,2,4,,2,6720,3.87123,2.936,1048.549,289.709,29.2,
1501,1,SBT2050,2,4,,2,6944,3.92611,2.9353,1231.23,289.709,29.3,
1501,1,SBT2050,2,4,,2,7168,3.98951,2.9361,1413.911,289.709,29.6,
1501,1,SBT2050,2,4,,2,7392,4.05723,2.936,1596.591,289.709,29.7,
1501,1,SBT2050,2,4,,2,7616,4.12716,2.9356,1779.272,289.709,30,
1501,1,SBT2050,2,4,,2,7840,4.15034,2.3497,1948.174,289.709,29.9,
1501,1,SBT2050,2,4,,2,8064,4.15025,1.7444,2074.518,289.709,28.7,
1501,1,SBT2050,2,4,,2,8288,4.15028,1.3193,2169.003,289.709,27.8,
1501,1,SBT2050,2,4,,2,8512,4.15022,1.0256,2241.468,289.709,27,
1501,1,SBT2050,2,4,,2,8736,4.150088,0.819,2298.464,289.709,26.5,
1501,1,SBT2050,2,4,,2,8960,4.15014,0.6661,2344.429,289.709,26.1,
1501,1,SBT2050,2,4,,2,9184,4.15,0.5529,2382.171,289.709,25.8,
1501,1,SBT2050,2,4,,2,9408,4.15004,0.46611,2413.725,289.709,25.6,
1501,1,SBT2050,2,4,,2,9632,4.14998,0.39794,2440.517,289.709,25.5,
1501,1,SBT2050,2,4,,2,9856,4.15002,0.34502,2463.566,289.709,25.4,
1501,1,SBT2050,2,4,,2,10080,4.15021,0.30234,2483.645,289.709,25.3,
1501,1,SBT2050,2,4,,2,10304,4.15003,0.26864,2501.346,289.709,25.3,
1501,1,SBT2050,2,4,,2,10528,4.14986,0.24013,2517.13,289.709,25.3,
1501,1,SBT2050,2,4,,2,10752,4.14998,0.21551,2531.298,289.709,25.2,
1501,1,SBT2050,2,4,,2,10976,4.15024,0.19492,2544.069,289.709,25,
1501,1,SBT2050,2,4,,2,11200,4.14992,0.1772,2555.629,289.709,25.1,
1501,1,SBT2050,2,4,,2,11424,4.1501,0.16117,2566.161,289.709,25.1,
1501,1,SBT2050,2,4,,2,11648,4.150088,0.1482,2575.788,289.709,25.1,
1501,1,SBT2050,2,4,,2,11872,4.15002,0.13595,2584.625,289.709,25.1,
1501,1,SBT2050,2,4,,2,12096,4.14985,0.1252,2592.743,289.709,25,
1501,1,SBT2050,2,4,,2,12320,4.15027,0.11478,2600.205,289.709,25,
1501,1,SBT2050,2,4,,2,12544,4.14991,0.10657,2607.074,289.709,25,
1501,1,SBT2050,2,4,,2,12768,4.14986,0.09893,2613.449,289.709,25,
1501,1,SBT2050,2,4,,2,12992,4.15,0.09214,2619.365,289.709,25,
1501,1,SBT2050,2,4,,2,13216,4.14993,0.08507,2624.867,289.709,25,
1501,1,SBT2050,2,4,,2,13440,4.14975,0.07981,2629.994,289.709,25,
1501,1,SBT2050,2,4,,2,13664,4.150112,0.07434,2634.773,289.709,25.1,
1501,1,SBT2050,2,4,,2,13888,4.150076,0.06899,2639.225,289.709,25,
1501,1,SBT2050,2,4,,2,14112,4.149826,0.06492,2643.383,289.709,24.9,
1501,1,SBT2050,2,4,,2,14336,4.1502,0.06083,2647.286,289.709,25,
1501,1,SBT2050,2,4,,2,14560,4.149814,0.05689,2650.956,289.709,25,
1501,1,SBT2050,2,4,,2,14784,4.14985,0.05372,2654.4,289.709,25,
1501,1,SBT2050,2,4,,2,15008,4.14992,0.05052,2657.654,289.709,25,
1501,1,SBT2050,2,4,,2,15232,4.1501,0.047444,2660.71,289.709,25,
1501,1,SBT2050,2,4,,2,15456,4.149826,0.045008,2663.592,289.709,25,
1501,1,SBT2050,2,4,,2,15680,4.14999,0.042058,2666.294,289.709,24.9,
1501,1,SBT2050,2,4,,2,15904,4.15006,0.039686,2668.843,289.709,24.9,
1501,1,SBT2050,2,4,,2,16128,4.15006,0.037284,2671.249,289.709,24.9,
1501,1,SBT2050,2,4,,2,16352,4.14993,0.035476,2673.522,289.709,25,
1501,1,SBT2050,2,4,,2,16576,4.14992,0.033817,2675.676,289.709,24.9,
1501,1,SBT2050,2,4,,2,16800,4.14977,0.032288,2677.725,289.709,24.8,
1501,1,SBT2050,2,4,,2,17024,4.15017,0.030736,2679.67,289.709,24.9,
1501,1,SBT2050,2,4,,2,17248,4.14998,0.029018,2681.52,289.709,24.9,
1501,1,SBT2050,2,4,,2,17472,4.14987,0.028093,2683.284,289.709,24.9,
1501,1,SBT2050,2,4,,2,17696,4.15006,0.026541,2684.967,289.709,24.9,
1501,1,SBT2050,2,4,,2,17920,4.14986,0.025015,2686.579,289.709,24.9,
1501,1,SBT2050,2,4,,2,18144,4.15004,0.024201,2688.123,289.709,24.9,
1501,1,SBT2050,2,4,,2,18368,4.15005,0.022957,2689.586,289.709,24.9,
1501,1,SBT2050,2,4,,2,18592,4.15015,0.022314,2690.991,289.709,25,
1501,1,SBT2050,2,4,,2,18816,4.14995,0.020923,2692.332,289.709,24.9,
1501,1,SBT2050,2,4,,2,19040,4.149826,0.020246,2693.623,289.709,25,
1501,1,SBT2050,2,4,,2,19264,4.14999,0.019411,2694.853,289.709,25,
1501,1,SBT2050,2,4,,2,19488,4.14995,0.018179,2696.043,289.709,24.9,
1501,1,SBT2050,2,4,,2,19712,4.14991,0.018323,2697.186,289.709,24.9,
1501,1,SBT2050,2,4,,2,19936,4.15,0.017524,2698.276,289.709,24.9,
1501,1,SBT2050,2,4,,2,20160,4.150076,0.016788,2699.331,289.709,24.9,
1501,1,SBT2050,2,4,,2,20384,4.149814,0.01587,2700.343,289.709,24.9,
1501,1,SBT2050,2,4,,2,20608,4.15006,0.014941,2701.316,289.709,25,
1501,1,SBT2050,2,4,,2,20832,4.14993,0.015003,2702.254,289.709,24.9,
1501,1,SBT2050,2,4,,2,21056,4.150112,0.014073,2703.154,289.709,25,
1501,1,SBT2050,2,4,,2,21280,4.14991,0.013674,2704.023,289.709,25,
1501,1,SBT2050,2,4,,2,21504,4.15003,0.013196,2704.863,289.709,24.9,
1501,1,SBT2050,2,4,,2,21728,4.14999,0.012637,2705.686,289.709,25,
1501,1,SBT2050,2,4,,2,21952,4.14992,0.012523,2706.476,289.709,25,
1501,1,SBT2050,2,4,,2,22176,4.150076,0.012221,2707.239,289.709,25,
1501,1,SBT2050,2,4,,2,22400,4.149838,0.011325,2707.97,289.709,24.8,
1501,1,SBT2050,2,4,,2,22624,4.14993,0.01162,2708.678,289.709,24.9,
1501,1,SBT2050,2,4,,2,22848,4.14992,0.010659,2709.367,289.709,24.9,
1501,1,SBT2050,2,4,,3,23071,4.14726,0,2709.876,289.709,24.9,
1501,1,SBT2050,2,4,,3,23295,4.14611,0,2709.876,289.709,24.9,
1501,1,SBT2050,2,4,,3,23519,4.145478,0,2709.876,289.709,24.9,
1501,1,SBT2050,2,4,,3,23743,4.14478,0,2709.876,289.709,24.9,
1501,1,SBT2050,2,4,,3,23967,4.14423,0,2709.876,289.709,24.9,
1501,1,SBT2050,2,4,,3,24191,4.14373,0,2709.876,289.709,24.9,
1501,1,SBT2050,2,4,,3,24415,4.14349,0,2709.876,289.709,24.9,
1501,1,SBT2050,2,4,,3,24639,4.14306,0,2709.876,289.709,25,
1501,1,SBT2050,2,4,,4,24862,3.79374,-2.9355,2709.876,324.981,25.4,
1501,1,SBT2050,2,4,,4,25086,3.722698,-2.9359,2709.876,507.663,27.6,
1501,1,SBT2050,2,4,,4,25310,3.682322,-2.9361,2709.876,690.345,28.6,
1501,1,SBT2050,2,4,,4,25534,3.63005,-2.9361,2709.876,873.027,28.7,
1501,1,SBT2050,2,4,,4,25758,3.57093,-2.9359,2709.876,1055.709,28.8,
1501,1,SBT2050,2,4,,4,25982,3.508588,-2.9355,2709.876,1238.391,28.8,
1501,1,SBT2050,2,4,,4,26206,3.44521,-2.9365,2709.876,1421.073,28.8,
1501,1,SBT2050,2,4,,4,26430,3.382566,-2.9362,2709.876,1603.755,29,
1501,1,SBT2050,2,4,,4,26654,3.319182,-2.9362,2709.876,1786.437,29,
1501,1,SBT2050,2,4,,4,26878,3.24994,-2.9361,2709.876,1969.119,29.4,
1501,1,SBT2050,2,4,,4,27102,3.16679,-2.9362,2709.876,2151.801,29.8,
1501,1,SBT2050,2,4,,4,27326,3.05619,-2.9359,2709.876,2334.483,30.7,
1501,1,SBT2050,2,4,,4,27550,2.88734,-2.936,2709.876,2517.166,31.8,
1501,1,SBT2050,2,4,,4,27774,2.49971,-2.769,2709.876,2699.651,34,
1501,1,SBT2050,2,4,,4,27998,2.49975,-1.1581,2709.876,2811.962,33.5,
1501,1,SBT2050,2,4,,4,28222,2.499909,-0.5922,2709.876,2863.526,30.6,
1501,1,SBT2050,2,4,,4,28446,2.49996,-0.38477,2709.876,2892.942,28.6,
1501,1,SBT2050,2,4,,4,28670,2.49997,-0.29083,2709.876,2913.684,27.3,
1501,1,SBT2050,2,4,,4,28894,2.499909,-0.23162,2709.876,2929.848,26.6,
1501,1,SBT2050,2,4,,4,29118,2.499909,-0.18781,2709.876,2942.834,26.2,
1501,1,SBT2050,2,4,,4,29342,2.499921,-0.15283,2709.876,2953.387,25.9,
1501,1,SBT2050,2,4,,4,29566,2.50002,-0.12472,2709.876,2961.994,25.8,
1501,1,SBT2050,2,4,,4,29790,2.50009,-0.10133,2709.876,2969.011,25.6,
1501,1,SBT2050,2,4,,4,30014,2.49998,-0.08237,2709.876,2974.701,25.5,
1501,1,SBT2050,2,4,,4,30238,2.49986,-0.0675,2709.876,2979.343,25.3,
1501,1,SBT2050,2,4,,4,30462,2.49997,-0.05635,2709.876,2983.191,25.2,
1501,1,SBT2050,2,4,,4,30686,2.50002,-0.04787,2709.876,2986.428,25.2,
1501,1,SBT2050,2,4,,4,30910,2.49996,-0.04082,2709.876,2989.18,25.2,
1501,1,SBT2050,2,4,,4,31134,2.49996,-0.034495,2709.876,2991.516,25.2,
1501,1,SBT2050,2,4,,4,31358,2.49999,-0.029096,2709.876,2993.488,25.2,
1501,1,SBT2050,2,4,,4,31582,2.4999,-0.024063,2709.876,2995.136,25.1,
1501,1,SBT2050,2,4,,4,31806,2.5,-0.019932,2709.876,2996.501,25.1,
1501,1,SBT2050,2,4,,4,32030,2.49979,-0.01632,2709.876,2997.629,25.2,
1501,1,SBT2050,2,4,,4,32254,2.49997,-0.013616,2709.876,2998.559,25,
1501,1,SBT2050,2,4,,4,32478,2.49998,-0.011284,2709.876,2999.328,25.1,
1501,1,SBT2050,2,4,,5,32701,2.55481,0,2709.876,2999.694,25,
1501,1,SBT2050,2,4,,5,32925,2.625484,0,2709.876,2999.694,24.9,
1501,1,SBT2050,2,4,,5,33149,2.66864,0,2709.876,2999.694,25,
1501,1,SBT2050,2,4,,5,33373,2.69754,0,2709.876,2999.694,25,
1501,1,SBT2050,2,4,,5,33597,2.71897,0,2709.876,2999.694,25,
1501,1,SBT2050,2,4,,5,33821,2.73532,0,2709.876,2999.694,24.9,
1501,1,SBT2050,2,4,,5,34045,2.748534,0,2709.876,2999.694,25,
1501,1,SBT2050,2,4,,5,34269,2.759638,0,2709.876,2999.694,25,
1501,1,SBT2050,2,4,,5,34400.861,2.76525,-0.000101,2709.876,2999.694,,