Folder: OR-RG_ExpRes/1C (part 6)

File: Test1561.csv
Request Year:,2018,,,,,,,,,,,,
Test:,1561,,,,,,,,,,,,
Test Description:,,,,,,,,,,,,,
TestRegime Name:,Aging_Performance,,,,,,,,,,,,
TestRegime Suffix:,SHP_LC,,,,,,,,,,,,
TestRegime CellSize:,18650,,,,,,,,,,,,
TestRegime Version:,1,,,,,,,,,,,,
Number Of Cells:,1,,,,,,,,,,,,
LotID:,,,,,,,,,,,,,
Lot Description:,,,,,,,,,,,,,
Date Made:,1/21/2003 12:00 AM,,,,,,,,,,,,
Origin:,Other,,,,,,,,,,,,
Requestor:,Admin,,,,,,,,,,,,
Product ID:,Default product,,,,,,,,,,,,
Storage Temp:,R.T./AMB,,,,,,,,,,,,
Storage Delay:,0 days,,,,,,,,,,,,
Test Temp:,R.T./AMB,,,,,,,,,,,,
Start Time:,4/26/2018 8:27 PM,,,,,,,,,,,,
End Time:,4/27/2018 7:41 AM,,,,,,,,,,,,
Operator Instructions:,,,,,,,,,,,,,
Test,Cell,Rack,Shelf,Position,Cell ID,Step,Total Time (Seconds),Voltage (V),Current (A),Charge Capacity (mAh),Discharge Capacity (mAh),TC1 (Â°C),
1561,1,SBT2050,2,4,,0,1,3.36273,0,0,0,24.7,
1561,1,SBT2050,2,4,,0,266,3.3629,0,0,0,25.1,
1561,1,SBT2050,2,4,,1,531,2.49988,-0.9838,0,107.714,29,
1561,1,SBT2050,2,4,,1,796,2.49986,-0.5069,0,159.38,28.3,
1561,1,SBT2050,2,4,,1,1061,2.49997,-0.3274,0,189.19,27.4,
1561,1,SBT2050,2,4,,1,1326,2.49996,-0.23845,0,209.691,26.7,
1561,1,SBT2050,2,4,,1,1591,2.50002,-0.18774,0,225.227,26.3,
1561,1,SBT2050,2,4,,1,1856,2.49986,-0.15445,0,237.754,26.2,
1561,1,SBT2050,2,4,,1,2121,2.499792,-0.13006,0,248.188,26,
1561,1,SBT2050,2,4,,1,2386,2.4999,-0.11113,0,257.032,25.9,
1561,1,SBT2050,2,4,,1,2651,2.49989,-0.09577,0,264.625,25.8,
1561,1,SBT2050,2,4,,1,2916,2.50013,-0.08309,0,271.194,25.7,
1561,1,SBT2050,2,4,,1,3181,2.49973,-0.07164,0,276.889,25.6,
1561,1,SBT2050,2,4,,1,3446,2.499947,-0.06226,0,281.817,25.5,
1561,1,SBT2050,2,4,,1,3711,2.4999,-0.05383,0,286.085,25.5,
1561,1,SBT2050,2,4,,1,3976,2.50001,-0.046686,0,289.788,25.4,
1561,1,SBT2050,2,4,,1,4241,2.49996,-0.040868,0,293.018,25.4,
1561,1,SBT2050,2,4,,1,4506,2.49973,-0.03607,0,295.856,25.4,
1561,1,SBT2050,2,4,,1,4771,2.49982,-0.031429,0,298.344,25.4,
1561,1,SBT2050,2,4,,1,5036,2.49973,-0.027844,0,300.521,25.4,
1561,1,SBT2050,2,4,,1,5301,2.499923,-0.024666,0,302.449,25.4,
1561,1,SBT2050,2,4,,1,5566,2.499792,-0.02188,0,304.171,25.3,
1561,1,SBT2050,2,4,,1,5831,2.50007,-0.01988,0,305.711,25.3,
1561,1,SBT2050,2,4,,1,6096,2.49991,-0.017705,0,307.091,25.3,
1561,1,SBT2050,2,4,,1,6361,2.50002,-0.015993,0,308.329,25.3,
1561,1,SBT2050,2,4,,1,6626,2.5001,-0.014274,0,309.439,25.3,
1561,1,SBT2050,2,4,,1,6891,2.49988,-0.012788,0,310.436,25.3,
1561,1,SBT2050,2,4,,1,7156,2.50001,-0.011525,0,311.335,25.2,
1561,1,SBT2050,2,4,,1,7421,2.50002,-0.010501,0,312.146,25.3,
1561,1,SBT2050,2,4,,2,7685,3.66336,2.9356,168.097,312.313,27.1,
1561,1,SBT2050,2,4,,2,7950,3.737,2.9361,384.216,312.313,29,
1561,1,SBT2050,2,4,,2,8215,3.78043,2.936,600.335,312.313,29.5,
1561,1,SBT2050,2,4,,2,8480,3.82823,2.9355,816.454,312.313,29.6,
1561,1,SBT2050,2,4,,2,8745,3.88009,2.9358,1032.574,312.313,29.6,
1561,1,SBT2050,2,4,,2,9010,3.94437,2.9357,1248.693,312.313,29.8,
1561,1,SBT2050,2,4,,2,9275,4.01966,2.9362,1464.811,312.313,30,
1561,1,SBT2050,2,4,,2,9540,4.10421,2.9362,1680.93,312.313,30.3,
1561,1,SBT2050,2,4,,2,9805,4.15001,2.4216,1886.728,312.313,30.2,
1561,1,SBT2050,2,4,,2,10070,4.15019,1.7133,2037.174,312.313,29,
1561,1,SBT2050,2,4,,2,10335,4.14996,1.2401,2144.624,312.313,27.8,
1561,1,SBT2050,2,4,,2,10600,4.14995,0.9311,2223.812,312.313,27,
1561,1,SBT2050,2,4,,2,10865,4.150042,0.7207,2284.085,312.313,26.4,
1561,1,SBT2050,2,4,,2,11130,4.14996,0.5752,2331.452,312.313,26.1,
1561,1,SBT2050,2,4,,2,11395,4.150078,0.46988,2369.723,312.313,25.9,
1561,1,SBT2050,2,4,,2,11660,4.14997,0.3932,2401.395,312.313,25.7,
1561,1,SBT2050,2,4,,2,11925,4.1499,0.33509,2428.11,312.313,25.6,
1561,1,SBT2050,2,4,,2,12190,4.1501,0.28878,2450.994,312.313,25.5,
1561,1,SBT2050,2,4,,2,12455,4.15016,0.25191,2470.854,312.313,25.4,
1561,1,SBT2050,2,4,,2,12720,4.14995,0.22215,2488.292,312.313,25.4,
1561,1,SBT2050,2,4,,2,12985,4.15011,0.19757,2503.738,312.313,25.4,
1561,1,SBT2050,2,4,,2,13250,4.14996,0.17754,2517.532,312.313,25.3,
1561,1,SBT2050,2,4,,2,13515,4.15023,0.1595,2529.912,312.313,25.4,
1561,1,SBT2050,2,4,,2,13780,4.150078,0.14465,2541.08,312.313,25.3,
1561,1,SBT2050,2,4,,2,14045,4.15016,0.1312,2551.217,312.313,25.2,
1561,1,SBT2050,2,4,,2,14310,4.14986,0.12048,2560.43,312.313,25.2,
1561,1,SBT2050,2,4,,2,14575,4.15011,0.10913,2568.847,312.313,25.2,
1561,1,SBT2050,2,4,,2,14840,4.14993,0.10056,2576.56,312.313,25.2,
1561,1,SBT2050,2,4,,2,15105,4.15021,0.09227,2583.671,312.313,25.2,
1561,1,SBT2050,2,4,,2,15370,4.14989,0.08491,2590.202,312.313,25.2,
1561,1,SBT2050,2,4,,2,15635,4.14989,0.07903,2596.242,312.313,25.2,
1561,1,SBT2050,2,4,,2,15900,4.15002,0.07367,2601.854,312.313,25.2,
1561,1,SBT2050,2,4,,2,16165,4.15026,0.06793,2607.06,312.313,25.1,
1561,1,SBT2050,2,4,,2,16430,4.14986,0.06372,2611.914,312.313,25.2,
1561,1,SBT2050,2,4,,2,16695,4.15009,0.05954,2616.452,312.313,25.1,
1561,1,SBT2050,2,4,,2,16960,4.15013,0.05565,2620.707,312.313,25.1,
1561,1,SBT2050,2,4,,2,17225,4.14998,0.05235,2624.691,312.313,25.1,
1561,1,SBT2050,2,4,,2,17490,4.150066,0.04924,2628.436,312.313,25.1,
1561,1,SBT2050,2,4,,2,17755,4.150042,0.046351,2631.964,312.313,25.2,
1561,1,SBT2050,2,4,,2,18020,4.14986,0.043968,2635.291,312.313,25.2,
1561,1,SBT2050,2,4,,2,18285,4.15022,0.041543,2638.446,312.313,25.2,
1561,1,SBT2050,2,4,,2,18550,4.15021,0.039258,2641.434,312.313,25.2,
1561,1,SBT2050,2,4,,2,18815,4.15019,0.037745,2644.253,312.313,25.2,
1561,1,SBT2050,2,4,,2,19080,4.14978,0.035359,2646.928,312.313,25.1,
1561,1,SBT2050,2,4,,2,19345,4.1497,0.03343,2649.467,312.313,25.2,
1561,1,SBT2050,2,4,,2,19610,4.14986,0.032926,2651.893,312.313,25.2,
1561,1,SBT2050,2,4,,2,19875,4.14986,0.030912,2654.2,312.313,25.1,
1561,1,SBT2050,2,4,,2,20140,4.150078,0.028778,2656.388,312.313,25.1,
1561,1,SBT2050,2,4,,2,20405,4.14996,0.027924,2658.494,312.313,25.1,
1561,1,SBT2050,2,4,,2,20670,4.15001,0.026574,2660.496,312.313,25.1,
1561,1,SBT2050,2,4,,2,20935,4.15001,0.025078,2662.402,312.313,25.1,
1561,1,SBT2050,2,4,,2,21200,4.1499,0.024532,2664.232,312.313,25.1,
1561,1,SBT2050,2,4,,2,21465,4.1499,0.023116,2666.001,312.313,25.2,
1561,1,SBT2050,2,4,,2,21730,4.1502,0.022221,2667.68,312.313,25.1,
1561,1,SBT2050,2,4,,2,21995,4.14985,0.021306,2669.287,312.313,25.1,
1561,1,SBT2050,2,4,,2,22260,4.14989,0.02054,2670.828,312.313,25.1,
1561,1,SBT2050,2,4,,2,22525,4.14997,0.019893,2672.311,312.313,25.1,
1561,1,SBT2050,2,4,,2,22790,4.14992,0.018911,2673.729,312.313,25.1,
1561,1,SBT2050,2,4,,2,23055,4.14998,0.018232,2675.092,312.313,25.1,
1561,1,SBT2050,2,4,,2,23320,4.14988,0.017922,2676.402,312.313,25.1,
1561,1,SBT2050,2,4,,2,23585,4.14991,0.01677,2677.66,312.313,25.1,
1561,1,SBT2050,2,4,,2,23850,4.149792,0.016278,2678.879,312.313,25.1,
1561,1,SBT2050,2,4,,2,24115,4.14991,0.015788,2680.049,312.313,25.1,
1561,1,SBT2050,2,4,,2,24380,4.14986,0.015123,2681.181,312.313,25.1,
1561,1,SBT2050,2,4,,2,24645,4.14995,0.014766,2682.264,312.313,25.1,
1561,1,SBT2050,2,4,,2,24910,4.1501,0.014314,2683.331,312.313,25.1,
1561,1,SBT2050,2,4,,2,25175,4.15002,0.013319,2684.344,312.313,25.1,
1561,1,SBT2050,2,4,,2,25440,4.14992,0.013107,2685.326,312.313,25.1,
1561,1,SBT2050,2,4,,2,25705,4.14999,0.012807,2686.269,312.313,25.1,
1561,1,SBT2050,2,4,,2,25970,4.14971,0.012512,2687.194,312.313,25.1,
1561,1,SBT2050,2,4,,2,26235,4.15022,0.011241,2688.084,312.313,25.1,
1561,1,SBT2050,2,4,,2,26500,4.15023,0.011971,2688.94,312.313,25.1,
1561,1,SBT2050,2,4,,2,26765,4.15014,0.010968,2689.782,312.313,25.1,
1561,1,SBT2050,2,4,,2,27030,4.15019,0.010723,2690.587,312.313,25.1,
1561,1,SBT2050,2,4,,3,27294,4.14776,0,2691.257,312.313,25.1,
1561,1,SBT2050,2,4,,3,27559,4.14566,0,2691.257,312.313,25.1,
1561,1,SBT2050,2,4,,3,27824,4.14462,0,2691.257,312.313,25.1,
1561,1,SBT2050,2,4,,3,28089,4.14412,0,2691.257,312.313,25.1,
1561,1,SBT2050,2,4,,3,28354,4.14302,0,2691.257,312.313,25.1,
1561,1,SBT2050,2,4,,3,28619,4.14264,0,2691.257,312.313,25.1,
1561,1,SBT2050,2,4,,3,28884,4.142496,0,2691.257,312.313,25.1,
1561,1,SBT2050,2,4,,4,29148,3.738066,-2.9359,2691.257,388.03,26.3,
1561,1,SBT2050,2,4,,4,29413,3.68207,-2.9362,2691.257,604.149,28.5,
1561,1,SBT2050,2,4,,4,29678,3.6257,-2.9363,2691.257,820.268,29.1,
1561,1,SBT2050,2,4,,4,29943,3.558342,-2.9358,2691.257,1036.388,29.1,
1561,1,SBT2050,2,4,,4,30208,3.486566,-2.9366,2691.257,1252.507,29.2,
1561,1,SBT2050,2,4,,4,30473,3.41348,-2.9363,2691.257,1468.626,29.3,
1561,1,SBT2050,2,4,,4,30738,3.33957,-2.9358,2691.257,1684.745,29.4,
1561,1,SBT2050,2,4,,4,31003,3.259522,-2.936,2691.257,1900.865,29.6,
1561,1,SBT2050,2,4,,4,31268,3.16467,-2.9359,2691.257,2116.984,30.3,
1561,1,SBT2050,2,4,,4,31533,3.03949,-2.9365,2691.257,2333.103,31.1,
1561,1,SBT2050,2,4,,4,31798,2.833557,-2.9358,2691.257,2549.222,32.5,
1561,1,SBT2050,2,4,,4,32063,2.49981,-1.7132,2691.257,2742.442,34.6,
1561,1,SBT2050,2,4,,4,32328,2.49978,-0.6956,2691.257,2822.987,31.5,
1561,1,SBT2050,2,4,,4,32593,2.49992,-0.40143,2691.257,2861.553,28.9,
1561,1,SBT2050,2,4,,4,32858,2.50006,-0.27776,2691.257,2886.027,27.5,
1561,1,SBT2050,2,4,,4,33123,2.49997,-0.21278,2691.257,2903.86,26.7,
1561,1,SBT2050,2,4,,4,33388,2.49985,-0.17368,2691.257,2917.994,26.3,
1561,1,SBT2050,2,4,,4,33653,2.500015,-0.14617,2691.257,2929.723,26,
1561,1,SBT2050,2,4,,4,33918,2.49992,-0.1241,2691.257,2939.641,25.9,
1561,1,SBT2050,2,4,,4,34183,2.500003,-0.10555,2691.257,2948.064,25.8,
1561,1,SBT2050,2,4,,4,34448,2.49998,-0.08997,2691.257,2955.237,25.7,
1561,1,SBT2050,2,4,,4,34713,2.49997,-0.07745,2691.257,2961.388,25.6,
1561,1,SBT2050,2,4,,4,34978,2.50006,-0.06688,2691.257,2966.681,25.5,
1561,1,SBT2050,2,4,,4,35243,2.49999,-0.05746,2691.257,2971.241,25.5,
1561,1,SBT2050,2,4,,4,35508,2.49993,-0.04989,2691.257,2975.178,25.4,
1561,1,SBT2050,2,4,,4,35773,2.500003,-0.043237,2691.257,2978.592,25.4,
1561,1,SBT2050,2,4,,4,36038,2.49996,-0.037752,2691.257,2981.57,25.3,
1561,1,SBT2050,2,4,,4,36303,2.49993,-0.032661,2691.257,2984.172,25.3,
1561,1,SBT2050,2,4,,4,36568,2.50012,-0.028613,2691.257,2986.43,25.3,
1561,1,SBT2050,2,4,,4,36833,2.50006,-0.025022,2691.257,2988.396,25.3,
1561,1,SBT2050,2,4,,4,37098,2.49999,-0.021736,2691.257,2990.112,25.3,
1561,1,SBT2050,2,4,,4,37363,2.49999,-0.019104,2691.257,2991.607,25.2,
1561,1,SBT2050,2,4,,4,37628,2.50007,-0.016717,2691.257,2992.918,25.2,
1561,1,SBT2050,2,4,,4,37893,2.500015,-0.014658,2691.257,2994.062,25.2,
1561,1,SBT2050,2,4,,4,38158,2.500027,-0.012839,2691.257,2995.067,25.2,
1561,1,SBT2050,2,4,,4,38423,2.49998,-0.011268,2691.257,2995.952,25.2,
1561,1,SBT2050,2,4,,5,38687,2.52849,0,2691.257,2996.61,25.2,
1561,1,SBT2050,2,4,,5,38952,2.62582,0,2691.257,2996.61,25.1,
1561,1,SBT2050,2,4,,5,39217,2.68218,0,2691.257,2996.61,25.2,
1561,1,SBT2050,2,4,,5,39482,2.71781,0,2691.257,2996.61,25.2,
1561,1,SBT2050,2,4,,5,39747,2.741934,0,2691.257,2996.61,25.1,
1561,1,SBT2050,2,4,,5,40012,2.759,0,2691.257,2996.61,25.2,
1561,1,SBT2050,2,4,,5,40277,2.772039,0,2691.257,2996.61,25.1,
1561,1,SBT2050,2,4,,5,40444.167,2.77832,-9.9E-05,2691.257,2996.61,,

File: Test1563.csv
Request Year:,2018,,,,,,,,,,,,
Test:,1563,,,,,,,,,,,,
Test Description:,,,,,,,,,,,,,
TestRegime Name:,Aging_Performance,,,,,,,,,,,,
TestRegime Suffix:,SHP_LC,,,,,,,,,,,,
TestRegime CellSize:,18650,,,,,,,,,,,,
TestRegime Version:,1,,,,,,,,,,,,
Number Of Cells:,1,,,,,,,,,,,,
LotID:,,,,,,,,,,,,,
Lot Description:,,,,,,,,,,,,,
Date Made:,1/21/2003 12:00 AM,,,,,,,,,,,,
Origin:,Other,,,,,,,,,,,,
Requestor:,Admin,,,,,,,,,,,,
Product ID:,Default product,,,,,,,,,,,,
Storage Temp:,R.T./AMB,,,,,,,,,,,,
Storage Delay:,0 days,,,,,,,,,,,,
Test Temp:,R.T./AMB,,,,,,,,,,,,
Start Time:,4/29/2018 2:29 AM,,,,,,,,,,,,
End Time:,4/29/2018 2:22 PM,,,,,,,,,,,,
Operator Instructions:,,,,,,,,,,,,,
Test,Cell,Rack,Shelf,Position,Cell ID,Step,Total Time (Seconds),Voltage (V),Current (A),Charge Capacity (mAh),Discharge Capacity (mAh),TC1 (Â°C),
1563,1,SBT2050,2,4,,0,1,3.3674,0,0,0,25.1,
1563,1,SBT2050,2,4,,0,276,3.368408,0,0,0,25.2,
1563,1,SBT2050,2,4,,1,551,2.499858,-0.9534,0,107.365,28.9,
1563,1,SBT2050,2,4,,1,826,2.49982,-0.5382,0,161.906,28.4,
1563,1,SBT2050,2,4,,1,1101,2.49997,-0.35657,0,195.227,27.5,
1563,1,SBT2050,2,4,,1,1376,2.49998,-0.26449,0,218.574,26.8,
1563,1,SBT2050,2,4,,1,1651,2.500025,-0.20936,0,236.501,26.4,
1563,1,SBT2050,2,4,,1,1926,2.49983,-0.17198,0,250.974,26.1,
1563,1,SBT2050,2,4,,1,2201,2.499858,-0.14562,0,263.053,25.9,
1563,1,SBT2050,2,4,,1,2476,2.50012,-0.12587,0,273.388,25.8,
1563,1,SBT2050,2,4,,1,2751,2.49992,-0.10978,0,282.363,25.6,
1563,1,SBT2050,2,4,,1,3026,2.49992,-0.09654,0,290.232,25.5,
1563,1,SBT2050,2,4,,1,3301,2.49997,-0.08517,0,297.16,25.5,
1563,1,SBT2050,2,4,,1,3576,2.500025,-0.07489,0,303.261,25.4,
1563,1,SBT2050,2,4,,1,3851,2.49997,-0.06604,0,308.633,25.4,
1563,1,SBT2050,2,4,,1,4126,2.49994,-0.05806,0,313.362,25.4,
1563,1,SBT2050,2,4,,1,4401,2.500001,-0.05099,0,317.523,25.3,
1563,1,SBT2050,2,4,,1,4676,2.499882,-0.044789,0,321.182,25.3,
1563,1,SBT2050,2,4,,1,4951,2.500013,-0.039377,0,324.396,25.3,
1563,1,SBT2050,2,4,,1,5226,2.49997,-0.034577,0,327.214,25.2,
1563,1,SBT2050,2,4,,1,5501,2.500013,-0.030494,0,329.693,25.2,
1563,1,SBT2050,2,4,,1,5776,2.49997,-0.026954,0,331.882,25.2,
1563,1,SBT2050,2,4,,1,6051,2.500013,-0.02366,0,333.81,25.2,
1563,1,SBT2050,2,4,,1,6326,2.49995,-0.020651,0,335.498,25.2,
1563,1,SBT2050,2,4,,1,6601,2.49992,-0.018147,0,336.978,25.1,
1563,1,SBT2050,2,4,,1,6876,2.50024,-0.01609,0,338.283,25.1,
1563,1,SBT2050,2,4,,1,7151,2.49987,-0.014241,0,339.438,25.2,
1563,1,SBT2050,2,4,,1,7426,2.49992,-0.012729,0,340.466,25.1,
1563,1,SBT2050,2,4,,1,7701,2.49995,-0.01109,0,341.383,25.2,
1563,1,SBT2050,2,4,,2,7975,2.94047,2.9364,1.082,342.2,25.2,
1563,1,SBT2050,2,4,,2,8250,3.701184,2.9358,225.355,342.2,27.9,
1563,1,SBT2050,2,4,,2,8525,3.76884,2.936,449.628,342.2,29.4,
1563,1,SBT2050,2,4,,2,8800,3.81493,2.9358,673.902,342.2,29.7,
1563,1,SBT2050,2,4,,2,9075,3.86633,2.9364,898.176,342.2,29.7,
1563,1,SBT2050,2,4,,2,9350,3.929,2.9359,1122.45,342.2,29.8,
1563,1,SBT2050,2,4,,2,9625,4.00448,2.9361,1346.724,342.2,30.2,
1563,1,SBT2050,2,4,,2,9900,4.08917,2.9365,1570.998,342.2,30.4,
1563,1,SBT2050,2,4,,2,10175,4.15023,2.57,1790.123,342.2,30.4,
1563,1,SBT2050,2,4,,2,10450,4.15013,1.8134,1955.732,342.2,29.4,
1563,1,SBT2050,2,4,,2,10725,4.15013,1.314,2073.916,342.2,28.1,
1563,1,SBT2050,2,4,,2,11000,4.1498,0.9959,2161.322,342.2,27.2,
1563,1,SBT2050,2,4,,2,11275,4.15006,0.7754,2228.383,342.2,26.7,
1563,1,SBT2050,2,4,,2,11550,4.14996,0.6219,2281.385,342.2,26.3,
1563,1,SBT2050,2,4,,2,11825,4.15023,0.5094,2324.389,342.2,26.1,
1563,1,SBT2050,2,4,,2,12100,4.14999,0.42598,2360.001,342.2,26,
1563,1,SBT2050,2,4,,2,12375,4.15009,0.36376,2390.046,342.2,25.8,
1563,1,SBT2050,2,4,,2,12650,4.14988,0.31359,2415.808,342.2,25.7,
1563,1,SBT2050,2,4,,2,12925,4.14997,0.27478,2438.26,342.2,25.6,
1563,1,SBT2050,2,4,,2,13200,4.14996,0.24238,2457.978,342.2,25.6,
1563,1,SBT2050,2,4,,2,13475,4.15003,0.21585,2475.451,342.2,25.5,
1563,1,SBT2050,2,4,,2,13750,4.14982,0.19288,2491.019,342.2,25.5,
1563,1,SBT2050,2,4,,2,14025,4.149932,0.17313,2504.96,342.2,25.4,
1563,1,SBT2050,2,4,,2,14300,4.15007,0.15538,2517.49,342.2,25.4,
1563,1,SBT2050,2,4,,2,14575,4.15035,0.14167,2528.807,342.2,25.4,
1563,1,SBT2050,2,4,,2,14850,4.15018,0.12835,2539.103,342.2,25.3,
1563,1,SBT2050,2,4,,2,15125,4.14969,0.1182,2548.501,342.2,25.3,
1563,1,SBT2050,2,4,,2,15400,4.15024,0.10811,2557.131,342.2,25.3,
1563,1,SBT2050,2,4,,2,15675,4.15015,0.09997,2565.074,342.2,25.3,
1563,1,SBT2050,2,4,,2,15950,4.14978,0.09242,2572.424,342.2,25.3,
1563,1,SBT2050,2,4,,2,16225,4.15005,0.08534,2579.204,342.2,25.2,
1563,1,SBT2050,2,4,,2,16500,4.14992,0.07859,2585.471,342.2,25.2,
1563,1,SBT2050,2,4,,2,16775,4.15023,0.07309,2591.277,342.2,25.2,
1563,1,SBT2050,2,4,,2,17050,4.15011,0.06816,2596.681,342.2,25.2,
1563,1,SBT2050,2,4,,2,17325,4.14999,0.06322,2601.684,342.2,25.2,
1563,1,SBT2050,2,4,,2,17600,4.15012,0.05876,2606.342,342.2,25.1,
1563,1,SBT2050,2,4,,2,17875,4.149932,0.05556,2610.711,342.2,25.2,
1563,1,SBT2050,2,4,,2,18150,4.14985,0.05188,2614.801,342.2,25.1,
1563,1,SBT2050,2,4,,2,18425,4.14984,0.04886,2618.642,342.2,25.1,
1563,1,SBT2050,2,4,,2,18700,4.14972,0.046152,2622.243,342.2,25.2,
1563,1,SBT2050,2,4,,2,18975,4.15011,0.042962,2625.641,342.2,25.1,
1563,1,SBT2050,2,4,,2,19250,4.14998,0.040946,2628.839,342.2,25.1,
1563,1,SBT2050,2,4,,2,19525,4.15017,0.038289,2631.867,342.2,25.1,
1563,1,SBT2050,2,4,,2,19800,4.15017,0.037029,2634.749,342.2,25.1,
1563,1,SBT2050,2,4,,2,20075,4.14979,0.034726,2637.478,342.2,25.1,
1563,1,SBT2050,2,4,,2,20350,4.14971,0.033954,2640.083,342.2,25.1,
1563,1,SBT2050,2,4,,2,20625,4.14997,0.031913,2642.582,342.2,25.1,
1563,1,SBT2050,2,4,,2,20900,4.14996,0.030466,2644.95,342.2,25.1,
1563,1,SBT2050,2,4,,2,21175,4.15003,0.029352,2647.223,342.2,25.1,
1563,1,SBT2050,2,4,,2,21450,4.14999,0.027352,2649.374,342.2,25.1,
1563,1,SBT2050,2,4,,2,21725,4.15003,0.026401,2651.439,342.2,25.1,
1563,1,SBT2050,2,4,,2,22000,4.15006,0.02484,2653.416,342.2,25.1,
1563,1,SBT2050,2,4,,2,22275,4.14998,0.024182,2655.309,342.2,25.1,
1563,1,SBT2050,2,4,,2,22550,4.15002,0.023214,2657.121,342.2,25.1,
1563,1,SBT2050,2,4,,2,22825,4.14988,0.022515,2658.865,342.2,25.2,
1563,1,SBT2050,2,4,,2,23100,4.1498,0.021161,2660.523,342.2,25.1,
1563,1,SBT2050,2,4,,2,23375,4.1499,0.02042,2662.114,342.2,25.1,
1563,1,SBT2050,2,4,,2,23650,4.15011,0.019862,2663.648,342.2,25.1,
1563,1,SBT2050,2,4,,2,23925,4.149932,0.018952,2665.115,342.2,25.1,
1563,1,SBT2050,2,4,,2,24200,4.15034,0.018584,2666.532,342.2,25.1,
1563,1,SBT2050,2,4,,2,24475,4.14987,0.017516,2667.9,342.2,25.1,
1563,1,SBT2050,2,4,,2,24750,4.1501,0.016654,2669.22,342.2,25.1,
1563,1,SBT2050,2,4,,2,25025,4.15004,0.016619,2670.488,342.2,25.1,
1563,1,SBT2050,2,4,,2,25300,4.149908,0.015958,2671.718,342.2,25.1,
1563,1,SBT2050,2,4,,2,25575,4.15031,0.015212,2672.907,342.2,25.1,
1563,1,SBT2050,2,4,,2,25850,4.14982,0.01454,2674.047,342.2,25.1,
1563,1,SBT2050,2,4,,2,26125,4.15012,0.014077,2675.151,342.2,25.1,
1563,1,SBT2050,2,4,,2,26400,4.15017,0.013918,2676.227,342.2,25.1,
1563,1,SBT2050,2,4,,2,26675,4.14987,0.01336,2677.26,342.2,25.1,
1563,1,SBT2050,2,4,,2,26950,4.149944,0.012856,2678.261,342.2,25.1,
1563,1,SBT2050,2,4,,2,27225,4.15006,0.01272,2679.234,342.2,25.1,
1563,1,SBT2050,2,4,,2,27500,4.14986,0.012432,2680.169,342.2,25.1,
1563,1,SBT2050,2,4,,2,27775,4.15003,0.011648,2681.074,342.2,25.1,
1563,1,SBT2050,2,4,,2,28050,4.149932,0.011344,2681.953,342.2,25.1,
1563,1,SBT2050,2,4,,2,28325,4.14979,0.011159,2682.803,342.2,25.1,
1563,1,SBT2050,2,4,,2,28600,4.14996,0.010751,2683.641,342.2,25.1,
1563,1,SBT2050,2,4,,3,28874,4.14698,0,2684.26,342.2,25,
1563,1,SBT2050,2,4,,3,29149,4.145306,0,2684.26,342.2,25.1,
1563,1,SBT2050,2,4,,3,29424,4.144246,0,2684.26,342.2,25.1,
1563,1,SBT2050,2,4,,3,29699,4.14367,0,2684.26,342.2,25.1,
1563,1,SBT2050,2,4,,3,29974,4.14326,0,2684.26,342.2,25.1,
1563,1,SBT2050,2,4,,3,30249,4.14242,0,2684.26,342.2,25.1,
1563,1,SBT2050,2,4,,3,30524,4.14208,0,2684.26,342.2,25.1,
1563,1,SBT2050,2,4,,4,30798,3.69881,-2.9363,2684.26,494.945,27.5,
1563,1,SBT2050,2,4,,4,31073,3.64633,-2.936,2684.26,719.22,29,
1563,1,SBT2050,2,4,,4,31348,3.580128,-2.936,2684.26,943.495,29.3,
1563,1,SBT2050,2,4,,4,31623,3.50597,-2.9357,2684.26,1167.769,29.4,
1563,1,SBT2050,2,4,,4,31898,3.42878,-2.9356,2684.26,1392.044,29.4,
1563,1,SBT2050,2,4,,4,32173,3.350343,-2.9359,2684.26,1616.318,29.5,
1563,1,SBT2050,2,4,,4,32448,3.26573,-2.9357,2684.26,1840.593,29.8,
1563,1,SBT2050,2,4,,4,32723,3.16731,-2.9356,2684.26,2064.868,30.4,
1563,1,SBT2050,2,4,,4,32998,3.040792,-2.9362,2684.26,2289.142,31.2,
1563,1,SBT2050,2,4,,4,33273,2.84029,-2.9362,2684.26,2513.417,32.6,
1563,1,SBT2050,2,4,,4,33548,2.49988,-1.838,2684.26,2719.123,35,
1563,1,SBT2050,2,4,,4,33823,2.49992,-0.7366,2684.26,2808.466,31.8,
1563,1,SBT2050,2,4,,4,34098,2.49985,-0.42985,2684.26,2850.827,29,
1563,1,SBT2050,2,4,,4,34373,2.49988,-0.31034,2684.26,2878.602,27.5,
1563,1,SBT2050,2,4,,4,34648,2.49985,-0.24079,2684.26,2899.507,26.8,
1563,1,SBT2050,2,4,,4,34923,2.49992,-0.19343,2684.26,2915.982,26.4,
1563,1,SBT2050,2,4,,4,35198,2.49988,-0.15999,2684.26,2929.404,26.1,
1563,1,SBT2050,2,4,,4,35473,2.49994,-0.13575,2684.26,2940.661,25.9,
1563,1,SBT2050,2,4,,4,35748,2.4999,-0.11701,2684.26,2950.296,25.8,
1563,1,SBT2050,2,4,,4,36023,2.49985,-0.10146,2684.26,2958.623,25.7,
1563,1,SBT2050,2,4,,4,36298,2.500063,-0.08773,2684.26,2965.832,25.6,
1563,1,SBT2050,2,4,,4,36573,2.500051,-0.07616,2684.26,2972.075,25.5,
1563,1,SBT2050,2,4,,4,36848,2.50009,-0.06642,2684.26,2977.512,25.5,
1563,1,SBT2050,2,4,,4,37123,2.500063,-0.05838,2684.26,2982.268,25.4,
1563,1,SBT2050,2,4,,4,37398,2.49998,-0.05132,2684.26,2986.441,25.4,
1563,1,SBT2050,2,4,,4,37673,2.49998,-0.045153,2684.26,2990.114,25.4,
1563,1,SBT2050,2,4,,4,37948,2.500218,-0.039705,2684.26,2993.347,25.3,
1563,1,SBT2050,2,4,,4,38223,2.50003,-0.03532,2684.26,2996.204,25.3,
1563,1,SBT2050,2,4,,4,38498,2.50018,-0.031689,2684.26,2998.756,25.3,
1563,1,SBT2050,2,4,,4,38773,2.499932,-0.02816,2684.26,3001.04,25.3,
1563,1,SBT2050,2,4,,4,39048,2.50003,-0.025052,2684.26,3003.072,25.2,
1563,1,SBT2050,2,4,,4,39323,2.50018,-0.022192,2684.26,3004.873,25.2,
1563,1,SBT2050,2,4,,4,39598,2.500075,-0.01967,2684.26,3006.466,25.2,
1563,1,SBT2050,2,4,,4,39873,2.50012,-0.017342,2684.26,3007.868,25.2,
1563,1,SBT2050,2,4,,4,40148,2.5,-0.01522,2684.26,3009.102,25.2,
1563,1,SBT2050,2,4,,4,40423,2.49987,-0.013342,2684.26,3010.192,25.2,
1563,1,SBT2050,2,4,,4,40698,2.500051,-0.012024,2684.26,3011.157,25.2,
1563,1,SBT2050,2,4,,4,40973,2.49999,-0.010612,2684.26,3012.011,25.2,
1563,1,SBT2050,2,4,,5,41247,2.600813,0,2684.26,3012.161,25.2,
1563,1,SBT2050,2,4,,5,41522,2.66819,0,2684.26,3012.161,25.1,
1563,1,SBT2050,2,4,,5,41797,2.70801,0,2684.26,3012.161,25.1,
1563,1,SBT2050,2,4,,5,42072,2.734198,0,2684.26,3012.161,25.1,
1563,1,SBT2050,2,4,,5,42347,2.75232,0,2684.26,3012.161,25.1,
1563,1,SBT2050,2,4,,5,42622,2.76524,0,2684.26,3012.161,25.1,
1563,1,SBT2050,2,4,,5,42825.263,2.77299,-0.0001,2684.26,3012.161,,