Folder: OR-RG_ExpRes/1C

File: Test1397.csv
Request Year:,2018,,,,,,,,,,,,
Test:,1397,,,,,,,,,,,,
Test Description:,,,,,,,,,,,,,
TestRegime Name:,Aging_Performance,,,,,,,,,,,,
TestRegime Suffix:,SHP_LC,,,,,,,,,,,,
TestRegime CellSize:,18650,,,,,,,,,,,,
TestRegime Version:,1,,,,,,,,,,,,
Number Of Cells:,1,,,,,,,,,,,,
LotID:,,,,,,,,,,,,,
Lot Description:,,,,,,,,,,,,,
Date Made:,1/21/2003 12:00 AM,,,,,,,,,,,,
Origin:,Other,,,,,,,,,,,,
Requestor:,Admin,,,,,,,,,,,,
Product ID:,Default product,,,,,,,,,,,,
Storage Temp:,R.T./AMB,,,,,,,,,,,,
Storage Delay:,0 days,,,,,,,,,,,,
Test Temp:,R.T./AMB,,,,,,,,,,,,
Start Time:,3/27/2018 12:32 PM,,,,,,,,,,,,
End Time:,3/27/2018 7:56 PM,,,,,,,,,,,,
Operator Instructions:,,,,,,,,,,,,,
Test,Cell,Rack,Shelf,Position,Cell ID,Step,Total Time (Seconds),Voltage (V),Current (A),Charge Capacity (mAh),Discharge Capacity (mAh),TC1 (Â°C),
1397,1,SBT2050,2,4,,0,1,3.32036,0,0,0,-1000,
1397,1,SBT2050,2,4,,0,141,3.32042,0,0,0,-1000,
1397,1,SBT2050,2,4,,0,281,3.32077,0,0,0,-1000,
1397,1,SBT2050,2,4,,1,421,2.49977,-1.2039,0,61.31,-1000,
1397,1,SBT2050,2,4,,1,561,2.49986,-0.7404,0,97.888,-1000,
1397,1,SBT2050,2,4,,1,701,2.49991,-0.4916,0,121.413,-1000,
1397,1,SBT2050,2,4,,1,841,2.49986,-0.33342,0,137.253,-1000,
1397,1,SBT2050,2,4,,1,981,2.4998,-0.21399,0,147.831,-1000,
1397,1,SBT2050,2,4,,1,1121,2.49955,-0.11486,0,154.155,-1000,
1397,1,SBT2050,2,4,,1,1261,2.499935,-0.05154,0,157.228,-1000,
1397,1,SBT2050,2,4,,1,1401,2.499947,-0.029829,0,158.718,-1000,
1397,1,SBT2050,2,4,,1,1541,2.49998,-0.022976,0,159.724,-1000,
1397,1,SBT2050,2,4,,1,1681,2.50005,-0.019669,0,160.548,24.9,
1397,1,SBT2050,2,4,,1,1821,2.499923,-0.017483,0,161.269,-1000,
1397,1,SBT2050,2,4,,1,1961,2.500078,-0.015963,0,161.917,-1000,
1397,1,SBT2050,2,4,,1,2101,2.499947,-0.014535,0,162.508,-1000,
1397,1,SBT2050,2,4,,1,2241,2.49998,-0.013265,0,163.048,-1000,
1397,1,SBT2050,2,4,,1,2381,2.50002,-0.012164,0,163.545,-1000,
1397,1,SBT2050,2,4,,1,2521,2.50005,-0.011364,0,164.004,-1000,
1397,1,SBT2050,2,4,,1,2661,2.50019,-0.010686,0,164.431,-1000,
1397,1,SBT2050,2,4,,2,2800,3.32285,2.9362,32.954,164.716,-1000,
1397,1,SBT2050,2,4,,2,2940,3.57468,2.9361,147.13,164.716,-1000,
1397,1,SBT2050,2,4,,2,3080,3.601116,2.936,261.305,164.716,-1000,
1397,1,SBT2050,2,4,,2,3220,3.63005,2.9364,375.481,164.716,-1000,
1397,1,SBT2050,2,4,,2,3360,3.656248,2.936,489.656,164.716,-1000,
1397,1,SBT2050,2,4,,2,3500,3.67735,2.9356,603.832,164.716,-1000,
1397,1,SBT2050,2,4,,2,3640,3.70031,2.9362,718.007,164.716,-1000,
1397,1,SBT2050,2,4,,2,3780,3.7239,2.9359,832.183,164.716,-1000,
1397,1,SBT2050,2,4,,2,3920,3.74778,2.9357,946.358,164.716,-1000,
1397,1,SBT2050,2,4,,2,4060,3.772512,2.9359,1060.534,164.716,-1000,
1397,1,SBT2050,2,4,,2,4200,3.79855,2.9363,1174.709,164.716,-1000,
1397,1,SBT2050,2,4,,2,4340,3.82727,2.9364,1288.885,164.716,-1000,
1397,1,SBT2050,2,4,,2,4480,3.85917,2.9357,1403.06,164.716,-1000,
1397,1,SBT2050,2,4,,2,4620,3.895026,2.936,1517.236,164.716,-1000,
1397,1,SBT2050,2,4,,2,4760,3.93386,2.9359,1631.411,164.716,-1000,
1397,1,SBT2050,2,4,,2,4900,3.97517,2.9358,1745.587,164.716,-1000,
1397,1,SBT2050,2,4,,2,5040,4.01682,2.9357,1859.762,164.716,-1000,
1397,1,SBT2050,2,4,,2,5180,4.05773,2.9361,1973.938,164.716,-1000,
1397,1,SBT2050,2,4,,2,5320,4.09846,2.936,2088.113,164.716,-1000,
1397,1,SBT2050,2,4,,2,5460,4.139272,2.9357,2202.288,164.716,-1000,
1397,1,SBT2050,2,4,,2,5600,4.1502,2.3926,2308.01,164.716,-1000,
1397,1,SBT2050,2,4,,2,5740,4.14995,1.8259,2389.51,164.716,-1000,
1397,1,SBT2050,2,4,,2,5880,4.15019,1.4061,2451.901,164.716,-1000,
1397,1,SBT2050,2,4,,2,6020,4.15028,1.1098,2500.459,164.716,-1000,
1397,1,SBT2050,2,4,,2,6160,4.15007,0.905,2539.383,164.716,-1000,
1397,1,SBT2050,2,4,,2,6300,4.150138,0.7635,2571.69,164.716,-1000,
1397,1,SBT2050,2,4,,2,6440,4.14992,0.6605,2599.267,164.716,-1000,
1397,1,SBT2050,2,4,,2,6580,4.14983,0.5771,2623.239,164.716,-1000,
1397,1,SBT2050,2,4,,2,6720,4.15019,0.5085,2644.305,164.716,-1000,
1397,1,SBT2050,2,4,,2,6860,4.15005,0.45262,2662.984,164.716,-1000,
1397,1,SBT2050,2,4,,2,7000,4.15009,0.40385,2679.635,164.716,-1000,
1397,1,SBT2050,2,4,,2,7140,4.14998,0.36204,2694.525,164.716,-1000,
1397,1,SBT2050,2,4,,2,7280,4.15003,0.32464,2707.861,164.716,-1000,
1397,1,SBT2050,2,4,,2,7420,4.15015,0.29242,2719.824,164.716,-1000,
1397,1,SBT2050,2,4,,2,7560,4.15021,0.26137,2730.552,164.716,-1000,
1397,1,SBT2050,2,4,,2,7700,4.15003,0.23654,2740.192,164.716,-1000,
1397,1,SBT2050,2,4,,2,7840,4.15008,0.21054,2748.847,164.716,-1000,
1397,1,SBT2050,2,4,,2,7980,4.15015,0.18959,2756.637,164.716,-1000,
1397,1,SBT2050,2,4,,2,8120,4.149876,0.17094,2763.636,164.716,-1000,
1397,1,SBT2050,2,4,,2,8260,4.15,0.1539,2769.943,164.716,-1000,
1397,1,SBT2050,2,4,,2,8400,4.14995,0.13863,2775.646,164.716,-1000,
1397,1,SBT2050,2,4,,2,8540,4.15021,0.1259,2780.79,164.716,-1000,
1397,1,SBT2050,2,4,,2,8680,4.149876,0.11376,2785.446,164.716,-1000,
1397,1,SBT2050,2,4,,2,8820,4.15028,0.10248,2789.647,164.716,-1000,
1397,1,SBT2050,2,4,,2,8960,4.15,0.09377,2793.456,164.716,-1000,
1397,1,SBT2050,2,4,,2,9100,4.15007,0.08438,2796.921,164.716,-1000,
1397,1,SBT2050,2,4,,2,9240,4.14996,0.0776,2800.076,164.716,-1000,
1397,1,SBT2050,2,4,,2,9380,4.1502,0.07106,2802.948,164.716,-1000,
1397,1,SBT2050,2,4,,2,9520,4.15022,0.06365,2805.54,164.716,-1000,
1397,1,SBT2050,2,4,,2,9660,4.149852,0.05906,2807.928,164.716,-1000,
1397,1,SBT2050,2,4,,2,9800,4.14983,0.05428,2810.113,164.716,-1000,
1397,1,SBT2050,2,4,,2,9940,4.15023,0.04901,2812.155,164.716,-1000,
1397,1,SBT2050,2,4,,2,10080,4.15005,0.044947,2813.98,164.716,-1000,
1397,1,SBT2050,2,4,,2,10220,4.14996,0.041757,2815.664,164.716,-1000,
1397,1,SBT2050,2,4,,2,10360,4.15009,0.038511,2817.226,164.716,-1000,
1397,1,SBT2050,2,4,,2,10500,4.15015,0.035881,2818.678,164.716,-1000,
1397,1,SBT2050,2,4,,2,10640,4.14982,0.034355,2820.025,164.716,-1000,
1397,1,SBT2050,2,4,,2,10780,4.14992,0.031538,2821.281,164.716,-1000,
1397,1,SBT2050,2,4,,2,10920,4.14994,0.027617,2822.422,164.716,-1000,
1397,1,SBT2050,2,4,,2,11060,4.150174,0.025777,2823.469,164.716,-1000,
1397,1,SBT2050,2,4,,2,11200,4.14996,0.024078,2824.425,164.716,-1000,
1397,1,SBT2050,2,4,,2,11340,4.15007,0.02199,2825.318,164.716,-1000,
1397,1,SBT2050,2,4,,2,11480,4.15011,0.020896,2826.154,164.716,-1000,
1397,1,SBT2050,2,4,,2,11620,4.15004,0.019863,2826.96,164.716,-1000,
1397,1,SBT2050,2,4,,2,11760,4.15001,0.018785,2827.707,164.716,-1000,
1397,1,SBT2050,2,4,,2,11900,4.14991,0.017315,2828.419,164.716,-1000,
1397,1,SBT2050,2,4,,2,12040,4.149888,0.017109,2829.077,164.716,-1000,
1397,1,SBT2050,2,4,,2,12180,4.14983,0.015703,2829.711,164.716,-1000,
1397,1,SBT2050,2,4,,2,12320,4.14998,0.014829,2830.296,164.716,-1000,
1397,1,SBT2050,2,4,,2,12460,4.14997,0.013277,2830.852,164.716,-1000,
1397,1,SBT2050,2,4,,2,12600,4.150174,0.012924,2831.365,164.716,-1000,
1397,1,SBT2050,2,4,,2,12740,4.15003,0.012247,2831.871,164.716,-1000,
1397,1,SBT2050,2,4,,2,12880,4.15004,0.011511,2832.323,164.716,-1000,
1397,1,SBT2050,2,4,,2,13020,4.15007,0.011363,2832.751,164.716,-1000,
1397,1,SBT2050,2,4,,3,13159,4.14906,0,2832.962,164.716,-1000,
1397,1,SBT2050,2,4,,3,13299,4.14851,0,2832.962,164.716,-1000,
1397,1,SBT2050,2,4,,3,13439,4.14822,0,2832.962,164.716,-1000,
1397,1,SBT2050,2,4,,3,13579,4.14777,0,2832.962,164.716,-1000,
1397,1,SBT2050,2,4,,3,13719,4.14789,0,2832.962,164.716,-1000,
1397,1,SBT2050,2,4,,3,13859,4.14757,0,2832.962,164.716,-1000,
1397,1,SBT2050,2,4,,3,13999,4.14788,0,2832.962,164.716,-1000,
1397,1,SBT2050,2,4,,3,14139,4.147396,0,2832.962,164.716,-1000,
1397,1,SBT2050,2,4,,3,14279,4.147502,0,2832.962,164.716,-1000,
1397,1,SBT2050,2,4,,3,14419,4.14725,0,2832.962,164.716,-1000,
1397,1,SBT2050,2,4,,3,14559,4.14701,0,2832.962,164.716,-1000,
1397,1,SBT2050,2,4,,3,14699,4.14714,0,2832.962,164.716,-1000,
1397,1,SBT2050,2,4,,3,14839,4.14675,0,2832.962,164.716,-1000,
1397,1,SBT2050,2,4,,4,14978,3.90747,-2.9363,2832.962,236.094,-1000,
1397,1,SBT2050,2,4,,4,15118,3.87777,-2.9359,2832.962,350.27,-1000,
1397,1,SBT2050,2,4,,4,15258,3.847132,-2.9362,2832.962,464.446,-1000,
1397,1,SBT2050,2,4,,4,15398,3.80978,-2.9359,2832.962,578.622,-1000,
1397,1,SBT2050,2,4,,4,15538,3.77098,-2.936,2832.962,692.798,-1000,
1397,1,SBT2050,2,4,,4,15678,3.734154,-2.936,2832.962,806.974,-1000,
1397,1,SBT2050,2,4,,4,15818,3.698986,-2.9357,2832.962,921.15,-1000,
1397,1,SBT2050,2,4,,4,15958,3.66279,-2.9357,2832.962,1035.326,-1000,
1397,1,SBT2050,2,4,,4,16098,3.62461,-2.936,2832.962,1149.502,-1000,
1397,1,SBT2050,2,4,,4,16238,3.58458,-2.936,2832.962,1263.678,-1000,
1397,1,SBT2050,2,4,,4,16378,3.54461,-2.936,2832.962,1377.854,-1000,
1397,1,SBT2050,2,4,,4,16518,3.50656,-2.9361,2832.962,1492.031,-1000,
1397,1,SBT2050,2,4,,4,16658,3.47169,-2.9358,2832.962,1606.207,-1000,
1397,1,SBT2050,2,4,,4,16798,3.43975,-2.9359,2832.962,1720.383,-1000,
1397,1,SBT2050,2,4,,4,16938,3.41014,-2.9367,2832.962,1834.56,-1000,
1397,1,SBT2050,2,4,,4,17078,3.38142,-2.9355,2832.962,1948.736,-1000,
1397,1,SBT2050,2,4,,4,17218,3.35077,-2.9363,2832.962,2062.912,-1000,
1397,1,SBT2050,2,4,,4,17358,3.315866,-2.9359,2832.962,2177.088,-1000,
1397,1,SBT2050,2,4,,4,17498,3.27385,-2.9361,2832.962,2291.264,-1000,
1397,1,SBT2050,2,4,,4,17638,3.2201,-2.936,2832.962,2405.44,-1000,
1397,1,SBT2050,2,4,,4,17778,3.14416,-2.9361,2832.962,2519.616,-1000,
1397,1,SBT2050,2,4,,4,17918,3.02307,-2.936,2832.962,2633.792,-1000,
1397,1,SBT2050,2,4,,4,18058,2.79527,-2.9362,2832.962,2747.969,-1000,
1397,1,SBT2050,2,4,,4,18198,2.49977,-2.2231,2832.962,2856.585,-1000,
1397,1,SBT2050,2,4,,4,18338,2.49958,-1.1668,2832.962,2920.536,-1000,
1397,1,SBT2050,2,4,,4,18478,2.49979,-0.616,2832.962,2953.922,-1000,
1397,1,SBT2050,2,4,,4,18618,2.49973,-0.347,2832.962,2972.066,-1000,
1397,1,SBT2050,2,4,,4,18758,2.4995,-0.18589,2832.962,2982.228,-1000,
1397,1,SBT2050,2,4,,4,18898,2.49965,-0.0795,2832.962,2987.217,-1000,
1397,1,SBT2050,2,4,,4,19038,2.5001,-0.034272,2832.962,2989.232,-1000,
1397,1,SBT2050,2,4,,4,19178,2.49996,-0.024335,2832.962,2990.328,-1000,
1397,1,SBT2050,2,4,,4,19318,2.49997,-0.020511,2832.962,2991.191,-1000,
1397,1,SBT2050,2,4,,4,19458,2.50009,-0.018123,2832.962,2991.939,-1000,
1397,1,SBT2050,2,4,,4,19598,2.49982,-0.016397,2832.962,2992.608,-1000,
1397,1,SBT2050,2,4,,4,19738,2.49987,-0.014962,2832.962,2993.214,-1000,
1397,1,SBT2050,2,4,,4,19878,2.49993,-0.013471,2832.962,2993.765,-1000,
1397,1,SBT2050,2,4,,4,20018,2.50001,-0.012234,2832.962,2994.265,-1000,
1397,1,SBT2050,2,4,,4,20158,2.499985,-0.011367,2832.962,2994.725,-1000,
1397,1,SBT2050,2,4,,4,20298,2.50001,-0.010319,2832.962,2995.15,-1000,
1397,1,SBT2050,2,4,,5,20437,2.53967,0,2832.962,2995.396,-1000,
1397,1,SBT2050,2,4,,5,20577,2.60359,0,2832.962,2995.396,-1000,
1397,1,SBT2050,2,4,,5,20717,2.64825,0,2832.962,2995.396,-1000,
1397,1,SBT2050,2,4,,5,20857,2.68039,0,2832.962,2995.396,-1000,
1397,1,SBT2050,2,4,,5,20997,2.70509,0,2832.962,2995.396,-1000,
1397,1,SBT2050,2,4,,5,26654.362,2.87746,0,2832.962,2995.396,,

File: Test1423.csv
Request Year:,2018,,,,,,,,,,,,
Test:,1423,,,,,,,,,,,,
Test Description:,,,,,,,,,,,,,
TestRegime Name:,Aging_Performance,,,,,,,,,,,,
TestRegime Suffix:,SHP_LC,,,,,,,,,,,,
TestRegime CellSize:,18650,,,,,,,,,,,,
TestRegime Version:,1,,,,,,,,,,,,
Number Of Cells:,1,,,,,,,,,,,,
LotID:,,,,,,,,,,,,,
Lot Description:,,,,,,,,,,,,,
Date Made:,1/21/2003 12:00 AM,,,,,,,,,,,,
Origin:,Other,,,,,,,,,,,,
Requestor:,Admin,,,,,,,,,,,,
Product ID:,Default product,,,,,,,,,,,,
Storage Temp:,R.T./AMB,,,,,,,,,,,,
Storage Delay:,0 days,,,,,,,,,,,,
Test Temp:,R.T./AMB,,,,,,,,,,,,
Start Time:,3/29/2018 1:09 PM,,,,,,,,,,,,
End Time:,3/29/2018 7:37 PM,,,,,,,,,,,,
Operator Instructions:,,,,,,,,,,,,,
Test,Cell,Rack,Shelf,Position,Cell ID,Step,Total Time (Seconds),Voltage (V),Current (A),Charge Capacity (mAh),Discharge Capacity (mAh),TC1 (Â°C),
1423,1,SBT2050,2,4,,0,1,3.33046,0,0,0,25.1,
1423,1,SBT2050,2,4,,0,151,3.330362,0,0,0,25.1,
1423,1,SBT2050,2,4,,1,301,3.070736,-2.9362,0,0.814,25.1,
1423,1,SBT2050,2,4,,1,451,2.49983,-1.1187,0,71.155,28.2,
1423,1,SBT2050,2,4,,1,601,2.49977,-0.7056,0,108.124,28.6,
1423,1,SBT2050,2,4,,1,751,2.49981,-0.4772,0,132.354,28.1,
1423,1,SBT2050,2,4,,1,901,2.5,-0.33617,0,149.076,27.5,
1423,1,SBT2050,2,4,,1,1051,2.499889,-0.23651,0,160.917,26.8,
1423,1,SBT2050,2,4,,1,1201,2.49976,-0.16161,0,169.145,26.3,
1423,1,SBT2050,2,4,,1,1351,2.49982,-0.10132,0,174.6,26,
1423,1,SBT2050,2,4,,1,1501,2.49985,-0.05322,0,177.737,25.7,
1423,1,SBT2050,2,4,,1,1651,2.4999,-0.02879,0,179.364,25.5,
1423,1,SBT2050,2,4,,1,1801,2.500032,-0.0202,0,180.353,25.3,
1423,1,SBT2050,2,4,,1,1951,2.50006,-0.016939,0,181.117,25.2,
1423,1,SBT2050,2,4,,1,2101,2.49996,-0.015072,0,181.78,25.2,
1423,1,SBT2050,2,4,,1,2251,2.50008,-0.013896,0,182.381,25.1,
1423,1,SBT2050,2,4,,1,2401,2.49995,-0.012589,0,182.932,25.1,
1423,1,SBT2050,2,4,,1,2551,2.49981,-0.011668,0,183.444,25.1,
1423,1,SBT2050,2,4,,1,2701,2.50012,-0.011193,0,183.922,25.2,
1423,1,SBT2050,2,4,,1,2851,2.5,-0.010409,0,184.372,25.1,
1423,1,SBT2050,2,4,,2,3000,3.334892,2.9355,32.936,184.683,25.3,
1423,1,SBT2050,2,4,,2,3150,3.58889,2.9362,155.268,184.683,26.4,
1423,1,SBT2050,2,4,,2,3300,3.62113,2.9355,277.599,184.683,27.6,
1423,1,SBT2050,2,4,,2,3450,3.6526,2.9361,399.93,184.683,28,
1423,1,SBT2050,2,4,,2,3600,3.67682,2.9359,522.262,184.683,28.2,
1423,1,SBT2050,2,4,,2,3750,3.69895,2.9356,644.593,184.683,28.2,
1423,1,SBT2050,2,4,,2,3900,3.72448,2.9355,766.924,184.683,28.2,
1423,1,SBT2050,2,4,,2,4050,3.749806,2.9364,889.256,184.683,28.2,
1423,1,SBT2050,2,4,,2,4200,3.77625,2.9362,1011.588,184.683,28.2,
1423,1,SBT2050,2,4,,2,4350,3.8047,2.9362,1133.919,184.683,28.2,
1423,1,SBT2050,2,4,,2,4500,3.83627,2.9363,1256.25,184.683,28.4,
1423,1,SBT2050,2,4,,2,4650,3.87187,2.9361,1378.582,184.683,28.6,
1423,1,SBT2050,2,4,,2,4800,3.91159,2.9362,1500.914,184.683,28.7,
1423,1,SBT2050,2,4,,2,4950,3.9548,2.9361,1623.245,184.683,28.9,
1423,1,SBT2050,2,4,,2,5100,3.99803,2.9354,1745.577,184.683,29.1,
1423,1,SBT2050,2,4,,2,5250,4.04239,2.9362,1867.908,184.683,29.2,
1423,1,SBT2050,2,4,,2,5400,4.08636,2.9355,1990.239,184.683,29.3,
1423,1,SBT2050,2,4,,2,5550,4.13077,2.9358,2112.57,184.683,29.4,
1423,1,SBT2050,2,4,,2,5700,4.150138,2.4849,2228.889,184.683,29.4,
1423,1,SBT2050,2,4,,2,5850,4.1501,1.9013,2319.775,184.683,29,
1423,1,SBT2050,2,4,,2,6000,4.150174,1.4661,2389.539,184.683,28.3,
1423,1,SBT2050,2,4,,2,6150,4.15013,1.1566,2443.839,184.683,27.7,
1423,1,SBT2050,2,4,,2,6300,4.15002,0.939,2487.196,184.683,27.3,
1423,1,SBT2050,2,4,,2,6450,4.1502,0.7832,2522.863,184.683,26.9,
1423,1,SBT2050,2,4,,2,6600,4.15011,0.6658,2552.925,184.683,26.6,
1423,1,SBT2050,2,4,,2,6750,4.1501,0.5771,2578.787,184.683,26.5,
1423,1,SBT2050,2,4,,2,6900,4.15,0.5058,2601.316,184.683,26.4,
1423,1,SBT2050,2,4,,2,7050,4.14992,0.44774,2621.171,184.683,26.2,
1423,1,SBT2050,2,4,,2,7200,4.14991,0.39858,2638.769,184.683,26.2,
1423,1,SBT2050,2,4,,2,7350,4.150162,0.35512,2654.468,184.683,26.1,
1423,1,SBT2050,2,4,,2,7500,4.15021,0.31915,2668.518,184.683,26.1,
1423,1,SBT2050,2,4,,2,7650,4.15003,0.28794,2681.157,184.683,26,
1423,1,SBT2050,2,4,,2,7800,4.15,0.25903,2692.555,184.683,26,
1423,1,SBT2050,2,4,,2,7950,4.15015,0.23463,2702.849,184.683,26,
1423,1,SBT2050,2,4,,2,8100,4.1501,0.21198,2712.15,184.683,26,
1423,1,SBT2050,2,4,,2,8250,4.15026,0.19226,2720.58,184.683,26,
1423,1,SBT2050,2,4,,2,8400,4.1499,0.17505,2728.232,184.683,26,
1423,1,SBT2050,2,4,,2,8550,4.15002,0.15798,2735.154,184.683,26,
1423,1,SBT2050,2,4,,2,8700,4.15,0.14401,2741.438,184.683,26,
1423,1,SBT2050,2,4,,2,8850,4.15015,0.13108,2747.171,184.683,26,
1423,1,SBT2050,2,4,,2,9000,4.15021,0.12093,2752.392,184.683,26,
1423,1,SBT2050,2,4,,2,9150,4.14995,0.10966,2757.158,184.683,26,
1423,1,SBT2050,2,4,,2,9300,4.149876,0.09948,2761.511,184.683,26,
1423,1,SBT2050,2,4,,2,9450,4.14992,0.09109,2765.487,184.683,26,
1423,1,SBT2050,2,4,,2,9600,4.14985,0.08352,2769.126,184.683,26,
1423,1,SBT2050,2,4,,2,9750,4.15008,0.07623,2772.464,184.683,26,
1423,1,SBT2050,2,4,,2,9900,4.15009,0.07027,2775.521,184.683,26,
1423,1,SBT2050,2,4,,2,10050,4.15015,0.06436,2778.333,184.683,26,
1423,1,SBT2050,2,4,,2,10200,4.14992,0.06021,2780.942,184.683,26,
1423,1,SBT2050,2,4,,2,10350,4.14998,0.05536,2783.347,184.683,26,
1423,1,SBT2050,2,4,,2,10500,4.14992,0.05151,2785.569,184.683,26,
1423,1,SBT2050,2,4,,2,10650,4.15001,0.047218,2787.634,184.683,26,
1423,1,SBT2050,2,4,,2,10800,4.15005,0.044147,2789.528,184.683,26,
1423,1,SBT2050,2,4,,2,10950,4.149864,0.041174,2791.293,184.683,26.1,
1423,1,SBT2050,2,4,,2,11100,4.15002,0.038398,2792.941,184.683,26.1,
1423,1,SBT2050,2,4,,2,11250,4.15013,0.034215,2794.468,184.683,26.1,
1423,1,SBT2050,2,4,,2,11400,4.14983,0.03272,2795.879,184.683,26.1,
1423,1,SBT2050,2,4,,2,11550,4.14982,0.030387,2797.198,184.683,26,
1423,1,SBT2050,2,4,,2,11700,4.15005,0.02837,2798.43,184.683,26.1,
1423,1,SBT2050,2,4,,2,11850,4.1502,0.026355,2799.577,184.683,26,
1423,1,SBT2050,2,4,,2,12000,4.14982,0.024796,2800.653,184.683,26,
1423,1,SBT2050,2,4,,2,12150,4.1499,0.023496,2801.658,184.683,26,
1423,1,SBT2050,2,4,,2,12300,4.15009,0.02129,2802.606,184.683,26,
1423,1,SBT2050,2,4,,2,12450,4.15,0.020681,2803.496,184.683,26,
1423,1,SBT2050,2,4,,2,12600,4.149876,0.019362,2804.323,184.683,26.1,
1423,1,SBT2050,2,4,,2,12750,4.14996,0.018267,2805.11,184.683,26,
1423,1,SBT2050,2,4,,2,12900,4.15032,0.017243,2805.864,184.683,26.1,
1423,1,SBT2050,2,4,,2,13050,4.150174,0.015945,2806.553,184.683,26,
1423,1,SBT2050,2,4,,2,13200,4.15013,0.016259,2807.218,184.683,26,
1423,1,SBT2050,2,4,,2,13350,4.149876,0.014326,2807.846,184.683,26,
1423,1,SBT2050,2,4,,2,13500,4.15007,0.013536,2808.447,184.683,26.1,
1423,1,SBT2050,2,4,,2,13650,4.14983,0.013102,2809.003,184.683,26,
1423,1,SBT2050,2,4,,2,13800,4.15004,0.011937,2809.519,184.683,26,
1423,1,SBT2050,2,4,,2,13950,4.15011,0.012125,2810.015,184.683,26,
1423,1,SBT2050,2,4,,3,14099,4.14854,0,2810.188,184.683,25.6,
1423,1,SBT2050,2,4,,3,14249,4.14862,0,2810.188,184.683,24.6,
1423,1,SBT2050,2,4,,3,14399,4.148014,0,2810.188,184.683,24.2,
1423,1,SBT2050,2,4,,3,14549,4.14768,0,2810.188,184.683,24.2,
1423,1,SBT2050,2,4,,3,14699,4.14767,0,2810.188,184.683,24.4,
1423,1,SBT2050,2,4,,3,14849,4.14766,0,2810.188,184.683,24.6,
1423,1,SBT2050,2,4,,3,14999,4.1475,0,2810.188,184.683,24.7,
1423,1,SBT2050,2,4,,3,15149,4.14703,0,2810.188,184.683,24.9,
1423,1,SBT2050,2,4,,3,15299,4.14686,0,2810.188,184.683,25,
1423,1,SBT2050,2,4,,3,15449,4.1467,0,2810.188,184.683,25,
1423,1,SBT2050,2,4,,3,15599,4.14685,0,2810.188,184.683,25,
1423,1,SBT2050,2,4,,3,15749,4.14644,0,2810.188,184.683,25,
1423,1,SBT2050,2,4,,4,15898,3.87733,-2.9361,2810.188,260.306,25.8,
1423,1,SBT2050,2,4,,4,16048,3.84829,-2.936,2810.188,382.638,26.8,
1423,1,SBT2050,2,4,,4,16198,3.81855,-2.9362,2810.188,504.969,27.3,
1423,1,SBT2050,2,4,,4,16348,3.78122,-2.9355,2810.188,627.3,27.5,
1423,1,SBT2050,2,4,,4,16498,3.742826,-2.9356,2810.188,749.631,27.4,
1423,1,SBT2050,2,4,,4,16648,3.70454,-2.9356,2810.188,871.963,27.5,
1423,1,SBT2050,2,4,,4,16798,3.665894,-2.9354,2810.188,994.294,27.4,
1423,1,SBT2050,2,4,,4,16948,3.6254,-2.9361,2810.188,1116.625,27.5,
1423,1,SBT2050,2,4,,4,17098,3.582006,-2.9357,2810.188,1238.956,27.5,
1423,1,SBT2050,2,4,,4,17248,3.538624,-2.9358,2810.188,1361.287,27.6,
1423,1,SBT2050,2,4,,4,17398,3.49718,-2.9358,2810.188,1483.618,27.7,
1423,1,SBT2050,2,4,,4,17548,3.458726,-2.9361,2810.188,1605.95,27.7,
1423,1,SBT2050,2,4,,4,17698,3.42369,-2.9358,2810.188,1728.281,27.8,
1423,1,SBT2050,2,4,,4,17848,3.39027,-2.9362,2810.188,1850.612,27.9,
1423,1,SBT2050,2,4,,4,17998,3.35643,-2.9361,2810.188,1972.943,28,
1423,1,SBT2050,2,4,,4,18148,3.3188,-2.9355,2810.188,2095.274,28.2,
1423,1,SBT2050,2,4,,4,18298,3.274979,-2.9358,2810.188,2217.606,28.3,
1423,1,SBT2050,2,4,,4,18448,3.2187,-2.9362,2810.188,2339.937,28.6,
1423,1,SBT2050,2,4,,4,18598,3.1407,-2.9359,2810.188,2462.269,29.1,
1423,1,SBT2050,2,4,,4,18748,3.02196,-2.9359,2810.188,2584.6,29.8,
1423,1,SBT2050,2,4,,4,18898,2.8119,-2.936,2810.188,2706.931,31,
1423,1,SBT2050,2,4,,4,19048,2.4998,-2.3849,2810.188,2825.949,33.4,
1423,1,SBT2050,2,4,,4,19198,2.49992,-1.2873,2810.188,2900.263,33.5,
1423,1,SBT2050,2,4,,4,19348,2.49965,-0.6894,2810.188,2940.043,31.6,
1423,1,SBT2050,2,4,,4,19498,2.49984,-0.39493,2810.188,2961.96,29.5,
1423,1,SBT2050,2,4,,4,19648,2.499849,-0.22632,2810.188,2974.623,28,
1423,1,SBT2050,2,4,,4,19798,2.49966,-0.12375,2810.188,2981.767,26.9,
1423,1,SBT2050,2,4,,4,19948,2.49973,-0.05945,2810.188,2985.451,26.3,
1423,1,SBT2050,2,4,,4,20098,2.49983,-0.030734,2810.188,2987.228,25.8,
1423,1,SBT2050,2,4,,4,20248,2.49988,-0.021477,2810.188,2988.284,25.5,
1423,1,SBT2050,2,4,,4,20398,2.49994,-0.018079,2810.188,2989.101,25.3,
1423,1,SBT2050,2,4,,4,20548,2.49993,-0.016157,2810.188,2989.809,25.2,
1423,1,SBT2050,2,4,,4,20698,2.50025,-0.014764,2810.188,2990.449,25.2,
1423,1,SBT2050,2,4,,4,20848,2.50012,-0.013579,2810.188,2991.037,25.2,
1423,1,SBT2050,2,4,,4,20998,2.50002,-0.012526,2810.188,2991.58,25.3,
1423,1,SBT2050,2,4,,4,21148,2.49998,-0.011778,2810.188,2992.086,25.3,
1423,1,SBT2050,2,4,,4,21298,2.49993,-0.010922,2810.188,2992.56,25.4,
1423,1,SBT2050,2,4,,4,21448,2.5001,-0.01038,2810.188,2993.01,25.4,
1423,1,SBT2050,2,4,,5,21597,2.5806,0,2810.188,2993.034,25.4,
1423,1,SBT2050,2,4,,5,21747,2.63527,0,2810.188,2993.034,25.4,
1423,1,SBT2050,2,4,,5,21897,2.67358,0,2810.188,2993.034,25.4,
1423,1,SBT2050,2,4,,5,22047,2.70159,0,2810.188,2993.034,25.4,
1423,1,SBT2050,2,4,,5,22197,2.72323,0,2810.188,2993.034,25.4,
1423,1,SBT2050,2,4,,5,22347,2.7406,0,2810.188,2993.034,25.4,
1423,1,SBT2050,2,4,,5,22497,2.75443,0,2810.188,2993.034,25.1,
1423,1,SBT2050,2,4,,5,22647,2.76562,0,2810.188,2993.034,24.9,
1423,1,SBT2050,2,4,,5,22797,2.775328,0,2810.188,2993.034,24.9,
1423,1,SBT2050,2,4,,5,22947,2.78342,0,2810.188,2993.034,25,
1423,1,SBT2050,2,4,,5,23097,2.790401,0,2810.188,2993.034,25,
1423,1,SBT2050,2,4,,5,23247,2.79658,0,2810.188,2993.034,25,
1423,1,SBT2050,2,4,,5,23256.479,2.79707,-9.9E-05,2810.188,2993.034,,