Folder: OR-RG_ExpRes/2C (part 4)

File: Test1551.csv
Request Year:,2018,,,,,,,,,,,,
Test:,1551,,,,,,,,,,,,
Test Description:,,,,,,,,,,,,,
TestRegime Name:,Aging_Performance,,,,,,,,,,,,
TestRegime Suffix:,SHP_LC,,,,,,,,,,,,
TestRegime CellSize:,18650,,,,,,,,,,,,
TestRegime Version:,1,,,,,,,,,,,,
Number Of Cells:,1,,,,,,,,,,,,
LotID:,,,,,,,,,,,,,
Lot Description:,,,,,,,,,,,,,
Date Made:,1/21/2003 12:00 AM,,,,,,,,,,,,
Origin:,Other,,,,,,,,,,,,
Requestor:,Admin,,,,,,,,,,,,
Product ID:,Default product,,,,,,,,,,,,
Storage Temp:,R.T./AMB,,,,,,,,,,,,
Storage Delay:,0 days,,,,,,,,,,,,
Test Temp:,R.T./AMB,,,,,,,,,,,,
Start Time:,4/25/2018 8:21 AM,,,,,,,,,,,,
End Time:,4/25/2018 5:06 PM,,,,,,,,,,,,
Operator Instructions:,,,,,,,,,,,,,
Test,Cell,Rack,Shelf,Position,Cell ID,Step,Total Time (Seconds),Voltage (V),Current (A),Charge Capacity (mAh),Discharge Capacity (mAh),TC1 (Â°C),
1551,1,SBT2050,2,9,,0,1,3.53155,0,0,0,24.6,
1551,1,SBT2050,2,9,,0,191,3.53225,0,0,0,24.9,
1551,1,SBT2050,2,9,,1,381,2.86444,-2.9359,0,66.058,27.2,
1551,1,SBT2050,2,9,,1,571,2.499609,-2.0254,0,212.249,32.7,
1551,1,SBT2050,2,9,,1,761,2.49956,-0.7706,0,280.034,32.3,
1551,1,SBT2050,2,9,,1,951,2.49981,-0.37624,0,308.384,29.9,
1551,1,SBT2050,2,9,,1,1141,2.4998,-0.23261,0,323.922,28.1,
1551,1,SBT2050,2,9,,1,1331,2.49986,-0.16565,0,334.245,27,
1551,1,SBT2050,2,9,,1,1521,2.49979,-0.12715,0,341.897,26.3,
1551,1,SBT2050,2,9,,1,1711,2.499931,-0.10324,0,347.932,25.9,
1551,1,SBT2050,2,9,,1,1901,2.49985,-0.08744,0,352.938,25.7,
1551,1,SBT2050,2,9,,1,2091,2.49988,-0.07664,0,357.255,25.5,
1551,1,SBT2050,2,9,,1,2281,2.49999,-0.06898,0,361.092,25.4,
1551,1,SBT2050,2,9,,1,2471,2.49986,-0.06375,0,364.59,25.3,
1551,1,SBT2050,2,9,,1,2661,2.49999,-0.05984,0,367.848,25.3,
1551,1,SBT2050,2,9,,1,2851,2.50001,-0.05679,0,370.924,25.3,
1551,1,SBT2050,2,9,,1,3041,2.49984,-0.05406,0,373.85,25.2,
1551,1,SBT2050,2,9,,1,3231,2.49995,-0.05195,0,376.649,25.2,
1551,1,SBT2050,2,9,,1,3421,2.499919,-0.04994,0,379.338,25.2,
1551,1,SBT2050,2,9,,1,3611,2.50001,-0.0485,0,381.933,25.2,
1551,1,SBT2050,2,9,,1,3801,2.499931,-0.047128,0,384.447,25.2,
1551,1,SBT2050,2,9,,1,3991,2.50003,-0.04558,0,386.89,25.2,
1551,1,SBT2050,2,9,,1,4181,2.49991,-0.044372,0,389.265,25.2,
1551,1,SBT2050,2,9,,1,4371,2.49998,-0.043369,0,391.58,25.2,
1551,1,SBT2050,2,9,,1,4561,2.50004,-0.042167,0,393.837,25.1,
1551,1,SBT2050,2,9,,1,4751,2.50005,-0.04137,0,396.042,25.2,
1551,1,SBT2050,2,9,,1,4941,2.4999,-0.040418,0,398.201,25.1,
1551,1,SBT2050,2,9,,1,5131,2.50013,-0.039695,0,400.316,25.1,
1551,1,SBT2050,2,9,,1,5321,2.5,-0.038971,0,402.389,25.1,
1551,1,SBT2050,2,9,,1,5511,2.4999,-0.038153,0,404.426,25.1,
1551,1,SBT2050,2,9,,1,5701,2.50004,-0.037452,0,406.426,25.1,
1551,1,SBT2050,2,9,,1,5891,2.49981,-0.036893,0,408.393,25.1,
1551,1,SBT2050,2,9,,1,6081,2.50003,-0.036495,0,410.329,25.1,
1551,1,SBT2050,2,9,,1,6271,2.49984,-0.035817,0,412.234,25.1,
1551,1,SBT2050,2,9,,1,6461,2.49987,-0.035194,0,414.11,25.1,
1551,1,SBT2050,2,9,,1,6651,2.50013,-0.034875,0,415.959,25.1,
1551,1,SBT2050,2,9,,1,6841,2.49997,-0.0344,0,417.782,25.1,
1551,1,SBT2050,2,9,,1,7031,2.50001,-0.033859,0,419.581,25.1,
1551,1,SBT2050,2,9,,1,7221,2.50004,-0.03339,0,421.357,25.2,
1551,1,SBT2050,2,9,,1,7411,2.499931,-0.032888,0,423.109,25.1,
1551,1,SBT2050,2,9,,1,7601,2.50017,-0.032584,0,424.839,25.1,
1551,1,SBT2050,2,9,,1,7791,2.49994,-0.032082,0,426.546,25.1,
1551,1,SBT2050,2,9,,1,7981,2.50012,-0.031916,0,428.232,25.1,
1551,1,SBT2050,2,9,,1,8171,2.50012,-0.031366,0,429.898,25.1,
1551,1,SBT2050,2,9,,1,8361,2.50004,-0.031084,0,431.543,25.1,
1551,1,SBT2050,2,9,,1,8551,2.49988,-0.030523,0,433.169,25.1,
1551,1,SBT2050,2,9,,1,8741,2.50011,-0.030293,0,434.775,25.1,
1551,1,SBT2050,2,9,,1,8931,2.50015,-0.029996,0,436.362,25.1,
1551,1,SBT2050,2,9,,1,9121,2.50013,-0.029557,0,437.932,25.1,
1551,1,SBT2050,2,9,,1,9311,2.499931,-0.02924,0,439.482,25.1,
1551,1,SBT2050,2,9,,1,9501,2.50012,-0.028838,0,441.014,25.1,
1551,1,SBT2050,2,9,,1,9691,2.49991,-0.028591,0,442.528,25.1,
1551,1,SBT2050,2,9,,1,9881,2.500098,-0.028129,0,444.027,25.1,
1551,1,SBT2050,2,9,,1,10071,2.49994,-0.027957,0,445.511,25.1,
1551,1,SBT2050,2,9,,1,10261,2.50004,-0.027723,0,446.98,25.1,
1551,1,SBT2050,2,9,,1,10451,2.50012,-0.027407,0,448.434,25.1,
1551,1,SBT2050,2,9,,1,10641,2.49997,-0.027206,0,449.873,25.1,
1551,1,SBT2050,2,9,,1,10831,2.500098,-0.026917,0,451.298,25.1,
1551,1,SBT2050,2,9,,1,11021,2.50011,-0.02663,0,452.707,25.1,
1551,1,SBT2050,2,9,,1,11211,2.50021,-0.026342,0,454.1,25,
1551,1,SBT2050,2,9,,1,11401,2.50003,-0.02603,0,455.477,25.1,
1551,1,SBT2050,2,9,,1,11591,2.49997,-0.025743,0,456.839,25.1,
1551,1,SBT2050,2,9,,1,11781,2.50003,-0.025365,0,458.185,25.1,
1551,1,SBT2050,2,9,,1,11971,2.50012,-0.025146,0,459.516,25.1,
1551,1,SBT2050,2,9,,1,12161,2.49997,-0.024718,0,460.832,25.1,
1551,1,SBT2050,2,9,,1,12351,2.50004,-0.024495,0,462.133,25.1,
1551,1,SBT2050,2,9,,1,12541,2.50003,-0.02423,0,463.419,25.1,
1551,1,SBT2050,2,9,,1,12731,2.49999,-0.024014,0,464.692,25,
1551,1,SBT2050,2,9,,1,12921,2.49986,-0.023677,0,465.95,25.1,
1551,1,SBT2050,2,9,,1,13111,2.4999,-0.023407,0,467.195,25.1,
1551,1,SBT2050,2,9,,1,13301,2.49985,-0.023112,0,468.426,25.1,
1551,1,SBT2050,2,9,,1,13491,2.49988,-0.022857,0,469.643,25.1,
1551,1,SBT2050,2,9,,1,13681,2.50001,-0.022793,0,470.846,25.1,
1551,1,SBT2050,2,9,,1,13871,2.50005,-0.022412,0,472.036,25,
1551,1,SBT2050,2,9,,1,14061,2.500074,-0.022194,0,473.212,25.1,
1551,1,SBT2050,2,9,,1,14251,2.49997,-0.021876,0,474.376,25,
1551,1,SBT2050,2,9,,1,14441,2.50012,-0.021755,0,475.526,25.1,
1551,1,SBT2050,2,9,,1,14631,2.50013,-0.021387,0,476.663,25,
1551,1,SBT2050,2,9,,1,14821,2.50001,-0.021211,0,477.786,25.1,
1551,1,SBT2050,2,9,,1,15011,2.49985,-0.020785,0,478.894,25,
1551,1,SBT2050,2,9,,1,15201,2.49998,-0.020576,0,479.988,25,
1551,1,SBT2050,2,9,,1,15391,2.49999,-0.020311,0,481.068,25.1,
1551,1,SBT2050,2,9,,1,15581,2.500074,-0.02012,0,482.136,25,
1551,1,SBT2050,2,9,,1,15771,2.5,-0.019916,0,483.193,25,
1551,1,SBT2050,2,9,,1,15961,2.50018,-0.019704,0,484.238,25,
1551,1,SBT2050,2,9,,1,16151,2.50021,-0.01957,0,485.271,25.1,
1551,1,SBT2050,2,9,,1,16341,2.50001,-0.019249,0,486.294,25,
1551,1,SBT2050,2,9,,1,16531,2.50003,-0.019174,0,487.307,25.1,
1551,1,SBT2050,2,9,,1,16721,2.50001,-0.018947,0,488.309,25,
1551,1,SBT2050,2,9,,1,16911,2.499919,-0.018665,0,489.303,25,
1551,1,SBT2050,2,9,,1,17101,2.5,-0.018561,0,490.288,25,
1551,1,SBT2050,2,9,,1,17291,2.500086,-0.018412,0,491.266,25,
1551,1,SBT2050,2,9,,1,17481,2.5,-0.018359,0,492.235,25,
1551,1,SBT2050,2,9,,1,17671,2.49994,-0.018084,0,493.197,25,
1551,1,SBT2050,2,9,,1,17861,2.499931,-0.018048,0,494.15,25,
1551,1,SBT2050,2,9,,1,18051,2.50006,-0.017905,0,495.096,25,
1551,1,SBT2050,2,9,,1,18241,2.50001,-0.017647,0,496.033,25.1,
1551,1,SBT2050,2,9,,1,18431,2.49981,-0.017441,0,496.962,25,
1551,1,SBT2050,2,9,,1,18621,2.49999,-0.017208,0,497.881,25,
1551,1,SBT2050,2,9,,1,18811,2.50001,-0.017246,0,498.793,25,
1551,1,SBT2050,2,9,,1,19001,2.50015,-0.017048,0,499.695,25,
1551,1,SBT2050,2,9,,1,19191,2.50005,-0.016888,0,500.59,25,
1551,1,SBT2050,2,9,,1,19381,2.49995,-0.01669,0,501.476,25,
1551,1,SBT2050,2,9,,1,19571,2.500074,-0.016614,0,502.355,25,
1551,1,SBT2050,2,9,,1,19761,2.49994,-0.016369,0,503.226,25,
1551,1,SBT2050,2,9,,1,19951,2.50003,-0.016283,0,504.089,25,
1551,1,SBT2050,2,9,,1,20141,2.49991,-0.016169,0,504.944,25,
1551,1,SBT2050,2,9,,1,20331,2.500086,-0.015945,0,505.791,25,
1551,1,SBT2050,2,9,,1,20521,2.49997,-0.015779,0,506.631,25,
1551,1,SBT2050,2,9,,1,20711,2.49988,-0.015617,0,507.463,25,
1551,1,SBT2050,2,9,,1,20901,2.499931,-0.015448,0,508.287,25,
1551,1,SBT2050,2,9,,1,21091,2.49984,-0.015291,0,509.104,25,
1551,1,SBT2050,2,9,,1,21281,2.5,-0.01523,0,509.914,25,
1551,1,SBT2050,2,9,,1,21471,2.50005,-0.015139,0,510.716,25,
1551,1,SBT2050,2,9,,1,21661,2.499919,-0.014958,0,511.51,25,
1551,1,SBT2050,2,9,,1,21851,2.49997,-0.014938,0,512.297,25,
1551,1,SBT2050,2,9,,1,22041,2.50001,-0.014753,0,513.077,25,
1551,1,SBT2050,2,9,,1,22231,2.499752,-0.014414,0,513.85,25,
1551,1,SBT2050,2,9,,1,22421,2.50011,-0.014551,0,514.616,25,
1551,1,SBT2050,2,9,,1,22611,2.499919,-0.014235,0,515.375,25,
1551,1,SBT2050,2,9,,1,22801,2.50006,-0.01422,0,516.127,25,
1551,1,SBT2050,2,9,,1,22991,2.50029,-0.01431,0,516.872,25,
1551,1,SBT2050,2,9,,1,23181,2.50001,-0.013842,0,517.61,25,
1551,1,SBT2050,2,9,,1,23371,2.500098,-0.013915,0,518.342,25,
1551,1,SBT2050,2,9,,1,23561,2.500074,-0.013705,0,519.067,25,
1551,1,SBT2050,2,9,,1,23751,2.5,-0.013582,0,519.785,25,
1551,1,SBT2050,2,9,,1,23941,2.49997,-0.013399,0,520.497,25,
1551,1,SBT2050,2,9,,1,24131,2.49999,-0.013431,0,521.202,25,
1551,1,SBT2050,2,9,,1,24321,2.49994,-0.013195,0,521.901,25,
1551,1,SBT2050,2,9,,1,24511,2.49991,-0.013063,0,522.593,25,
1551,1,SBT2050,2,9,,1,24701,2.499919,-0.012894,0,523.278,25,
1551,1,SBT2050,2,9,,1,24891,2.499919,-0.012756,0,523.957,25,
1551,1,SBT2050,2,9,,1,25081,2.50006,-0.012679,0,524.63,25,
1551,1,SBT2050,2,9,,1,25271,2.49988,-0.012454,0,525.296,25,
1551,1,SBT2050,2,9,,1,25461,2.50019,-0.012427,0,525.955,25,
1551,1,SBT2050,2,9,,1,25651,2.499931,-0.012148,0,526.607,25,
1551,1,SBT2050,2,9,,1,25841,2.50006,-0.012178,0,527.252,25,
1551,1,SBT2050,2,9,,1,26031,2.499931,-0.012006,0,527.892,25,
1551,1,SBT2050,2,9,,1,26221,2.50004,-0.01189,0,528.525,25,
1551,1,SBT2050,2,9,,1,26411,2.50016,-0.011828,0,529.152,25,
1551,1,SBT2050,2,9,,1,26601,2.5,-0.011674,0,529.773,25,
1551,1,SBT2050,2,9,,1,26791,2.50003,-0.011518,0,530.389,25,
1551,1,SBT2050,2,9,,1,26981,2.50013,-0.011579,0,530.998,25,
1551,1,SBT2050,2,9,,1,27171,2.500074,-0.011389,0,531.602,25,
1551,1,SBT2050,2,9,,1,27361,2.500098,-0.011389,0,532.2,25,
1551,1,SBT2050,2,9,,1,27551,2.49991,-0.011133,0,532.792,25,
1551,1,SBT2050,2,9,,1,27741,2.49999,-0.011055,0,533.379,25,
1551,1,SBT2050,2,9,,1,27931,2.5003,-0.01106,0,533.962,25,
1551,1,SBT2050,2,9,,1,28121,2.50005,-0.010894,0,534.538,25,
1551,1,SBT2050,2,9,,1,28311,2.50003,-0.010837,0,535.11,25,
1551,1,SBT2050,2,9,,1,28501,2.50013,-0.010686,0,535.676,25,
1551,1,SBT2050,2,9,,1,28691,2.500074,-0.010663,0,536.237,25,
1551,1,SBT2050,2,9,,1,28881,2.500074,-0.010528,0,536.794,25,
1551,1,SBT2050,2,9,,1,29071,2.500086,-0.010412,0,537.346,25,
1551,1,SBT2050,2,9,,1,29261,2.499931,-0.010345,0,537.893,25,
1551,1,SBT2050,2,9,,1,29451,2.49982,-0.010257,0,538.435,25,
1551,1,SBT2050,2,9,,2,29640,3.91191,2.9361,69.13,538.73,26.3,
1551,1,SBT2050,2,9,,2,29830,4.011004,2.9361,224.083,538.73,30.4,
1551,1,SBT2050,2,9,,2,30020,4.054136,2.9355,379.037,538.73,32.2,
1551,1,SBT2050,2,9,,2,30210,4.12034,2.936,533.99,538.73,32.9,
1551,1,SBT2050,2,9,,2,30400,4.1501,2.5136,681.504,538.73,33.2,
1551,1,SBT2050,2,9,,2,30590,4.15022,1.969,798.968,538.73,32.3,
1551,1,SBT2050,2,9,,2,30780,4.14995,1.7366,894.833,538.73,32,
1551,1,SBT2050,2,9,,2,30970,4.14989,1.9621,990.478,538.73,35.3,
1551,1,SBT2050,2,9,,2,31160,4.14991,2.4749,1107.125,538.73,43.3,
1551,1,SBT2050,2,9,,2,31350,4.150054,2.8848,1249.685,538.73,53.5,
1551,1,SBT2050,2,9,,2,31490.002,4.14652,-2.9356,1363.547,538.73,60.2,

File: Test1588.csv
Request Year:,2018,,,,,,,,,,,,
Test:,1588,,,,,,,,,,,,
Test Description:,,,,,,,,,,,,,
TestRegime Name:,Compare_2C,,,,,,,,,,,,
TestRegime Suffix:,SHP_LC,,,,,,,,,,,,
TestRegime CellSize:,18650,,,,,,,,,,,,
TestRegime Version:,1,,,,,,,,,,,,
Number Of Cells:,1,,,,,,,,,,,,
LotID:,,,,,,,,,,,,,
Lot Description:,,,,,,,,,,,,,
Date Made:,1/21/2003 12:00 AM,,,,,,,,,,,,
Origin:,Other,,,,,,,,,,,,
Requestor:,Admin,,,,,,,,,,,,
Product ID:,Default product,,,,,,,,,,,,
Storage Temp:,R.T./AMB,,,,,,,,,,,,
Storage Delay:,0 days,,,,,,,,,,,,
Test Temp:,R.T./AMB,,,,,,,,,,,,
Start Time:,5/3/2018 4:49 AM,,,,,,,,,,,,
End Time:,5/3/2018 7:11 AM,,,,,,,,,,,,
Operator Instructions:,,,,,,,,,,,,,
Test,Cell,Rack,Shelf,Position,Cell ID,Step,Total Time (Seconds),Voltage (V),Current (A),Charge Capacity (mAh),Discharge Capacity (mAh),TC1 (Â°C),
1588,1,SBT2050,2,9,,0,1,3.49436,0,0,0,24.8,
1588,1,SBT2050,2,9,,0,50,3.49407,0,0,0,24.9,
1588,1,SBT2050,2,9,,0,99,3.49414,0,0,0,25,
1588,1,SBT2050,2,9,,0,148,3.49391,0,0,0,25,
1588,1,SBT2050,2,9,,0,197,3.49408,0,0,0,25.2,
1588,1,SBT2050,2,9,,0,246,3.49389,0,0,0,25.2,
1588,1,SBT2050,2,9,,0,295,3.49405,0,0,0,25.2,
1588,1,SBT2050,2,9,,1,344,4.200124,4.6104,63.552,0,27.4,
1588,1,SBT2050,2,9,,1,393,4.20018,4.0768,121.908,0,29.7,
1588,1,SBT2050,2,9,,1,442,4.19996,3.9014,176.016,0,31.3,
1588,1,SBT2050,2,9,,1,491,4.20029,3.7866,228.379,0,32.6,
1588,1,SBT2050,2,9,,1,540,4.2,3.6388,278.942,0,33.4,
1588,1,SBT2050,2,9,,1,589,4.19998,3.4623,327.278,0,34,
1588,1,SBT2050,2,9,,1,638,4.20005,3.2736,373.127,0,34.4,
1588,1,SBT2050,2,9,,1,687,4.200124,3.0808,416.377,0,34.6,
1588,1,SBT2050,2,9,,1,736,4.20024,2.8891,456.994,0,34.6,
1588,1,SBT2050,2,9,,1,785,4.20021,2.7004,495.02,0,34.5,
1588,1,SBT2050,2,9,,1,834,4.200148,2.5221,530.554,0,34.2,
1588,1,SBT2050,2,9,,1,883,4.199862,2.3536,563.72,0,34,
1588,1,SBT2050,2,9,,1,932,4.200136,2.1977,594.672,0,33.6,
1588,1,SBT2050,2,9,,1,981,4.20009,2.0542,623.587,0,33.3,
1588,1,SBT2050,2,9,,1,1030,4.2,1.9243,650.649,0,32.8,
1588,1,SBT2050,2,9,,1,1079,4.200124,1.8077,676.024,0,32.5,
1588,1,SBT2050,2,9,,1,1128,4.200172,1.7091,699.934,0,32.1,
1588,1,SBT2050,2,9,,1,1177,4.200136,1.6287,722.627,0,31.9,
1588,1,SBT2050,2,9,,1,1226,4.20008,1.5669,744.352,0,31.6,
1588,1,SBT2050,2,9,,1,1275,4.19993,1.5237,765.365,0,31.6,
1588,1,SBT2050,2,9,,1,1324,4.20026,1.4973,785.906,0,31.6,
1588,1,SBT2050,2,9,,1,1373,4.200136,1.4888,806.207,0,31.7,
1588,1,SBT2050,2,9,,1,1422,4.19998,1.4966,826.511,0,32.1,
1588,1,SBT2050,2,9,,1,1471,4.19975,1.5189,847.02,0,32.6,
1588,1,SBT2050,2,9,,1,1520,4.199826,1.5568,867.943,0,33.3,
1588,1,SBT2050,2,9,,1,1569,4.19977,1.6043,889.449,0,34.2,
1588,1,SBT2050,2,9,,1,1618,4.20004,1.6601,911.657,0,35.2,
1588,1,SBT2050,2,9,,1,1667,4.19985,1.7208,934.655,0,36.5,
1588,1,SBT2050,2,9,,1,1716,4.19979,1.7843,958.505,0,37.7,
1588,1,SBT2050,2,9,,1,1765,4.1999,1.8551,983.275,0,39.3,
1588,1,SBT2050,2,9,,1,1814,4.20004,1.9198,1008.965,0,40.8,
1588,1,SBT2050,2,9,,1,1863,4.19996,1.9864,1035.559,0,42.5,
1588,1,SBT2050,2,9,,1,1912,4.20006,2.0466,1063.012,0,44.3,
1588,1,SBT2050,2,9,,1,1961,4.20009,2.098,1091.226,0,46.1,
1588,1,SBT2050,2,9,,1,2010,4.19995,2.1417,1120.098,0,47.9,
1588,1,SBT2050,2,9,,1,2059,4.19992,2.1713,1149.467,0,49.5,
1588,1,SBT2050,2,9,,1,2108,4.200136,2.1942,1179.19,0,51.2,
1588,1,SBT2050,2,9,,1,2157,4.19985,2.2051,1209.146,0,52.8,
1588,1,SBT2050,2,9,,1,2206,4.20002,2.2036,1239.151,0,54,
1588,1,SBT2050,2,9,,1,2255,4.199838,2.1927,1269.079,0,55.3,
1588,1,SBT2050,2,9,,1,2304,4.200148,2.1743,1298.802,0,56.4,
1588,1,SBT2050,2,9,,1,2353,4.19999,2.1476,1328.223,0,57.1,
1588,1,SBT2050,2,9,,1,2402,4.19987,2.1113,1357.223,0,57.8,
1588,1,SBT2050,2,9,,1,2451,4.19991,2.0708,1385.693,0,58.4,
1588,1,SBT2050,2,9,,1,2500,4.19997,2.0285,1413.59,0,58.8,
1588,1,SBT2050,2,9,,1,2549,4.20009,1.9844,1440.919,0,59,
1588,1,SBT2050,2,9,,1,2598,4.20027,1.9368,1467.61,0,59,
1588,1,SBT2050,2,9,,1,2647,4.19992,1.8885,1493.635,0,58.9,
1588,1,SBT2050,2,9,,1,2696,4.20024,1.8421,1519.018,0,58.9,
1588,1,SBT2050,2,9,,1,2745,4.2,1.7964,1543.773,0,58.6,
1588,1,SBT2050,2,9,,1,2794,4.200124,1.7458,1567.882,0,58.3,
1588,1,SBT2050,2,9,,1,2843,4.200136,1.6959,1591.306,0,58,
1588,1,SBT2050,2,9,,1,2892,4.2001,1.6438,1614.036,0,57.5,
1588,1,SBT2050,2,9,,1,2941,4.20016,1.5983,1636.098,0,57,
1588,1,SBT2050,2,9,,1,2990,4.19999,1.5515,1657.539,0,56.6,
1588,1,SBT2050,2,9,,1,3039,4.20023,1.5035,1678.331,0,56,
1588,1,SBT2050,2,9,,1,3088,4.19985,1.4627,1698.529,0,55.4,
1588,1,SBT2050,2,9,,1,3137,4.19989,1.4201,1718.153,0,54.8,
1588,1,SBT2050,2,9,,1,3186,4.19991,1.379,1737.187,0,54.2,
1588,1,SBT2050,2,9,,1,3235,4.19975,1.3426,1755.703,0,53.7,
1588,1,SBT2050,2,9,,1,3284,4.199838,1.3086,1773.727,0,53.2,
1588,1,SBT2050,2,9,,1,3333,4.19999,1.2734,1791.285,0,52.5,
1588,1,SBT2050,2,9,,1,3382,4.20021,1.2367,1808.374,0,52,
1588,1,SBT2050,2,9,,1,3431,4.19992,1.2074,1825.012,0,51.4,
1588,1,SBT2050,2,9,,1,3480,4.19997,1.1785,1841.246,0,51,
1588,1,SBT2050,2,9,,1,3529,4.20004,1.1474,1857.059,0,50.4,
1588,1,SBT2050,2,9,,1,3578,4.19979,1.1193,1872.486,0,50,
1588,1,SBT2050,2,9,,1,3627,4.20006,1.0909,1887.533,0,49.4,
1588,1,SBT2050,2,9,,1,3676,4.20031,1.0658,1902.221,0,48.9,
1588,1,SBT2050,2,9,,1,3725,4.19999,1.043,1916.573,0,48.4,
1588,1,SBT2050,2,9,,1,3774,4.200148,1.0203,1930.617,0,48,
1588,1,SBT2050,2,9,,1,3823,4.20006,0.9999,1944.369,0,47.6,
1588,1,SBT2050,2,9,,1,3872,4.20002,0.9805,1957.85,0,47.2,
1588,1,SBT2050,2,9,,1,3921,4.19999,0.9594,1971.056,0,46.8,
1588,1,SBT2050,2,9,,1,3970,4.19996,0.9408,1983.977,0,46.4,
1588,1,SBT2050,2,9,,1,4019,4.20022,0.9242,1996.67,0,46.1,
1588,1,SBT2050,2,9,,1,4068,4.19999,0.9083,2009.146,0,45.7,
1588,1,SBT2050,2,9,,1,4117,4.20002,0.8913,2021.39,0,45.4,
1588,1,SBT2050,2,9,,1,4166,4.19998,0.8772,2033.43,0,45.1,
1588,1,SBT2050,2,9,,1,4215,4.2001,0.8633,2045.281,0,44.7,
1588,1,SBT2050,2,9,,1,4264,4.19977,0.852,2056.956,0,44.5,
1588,1,SBT2050,2,9,,1,4313,4.2002,0.8411,2068.473,0,44.2,
1588,1,SBT2050,2,9,,1,4362,4.20027,0.8325,2079.865,0,44,
1588,1,SBT2050,2,9,,1,4411,4.20004,0.8226,2091.131,0,43.8,
1588,1,SBT2050,2,9,,1,4460,4.2,0.8127,2102.255,0,43.6,
1588,1,SBT2050,2,9,,1,4509,4.20005,0.8059,2113.268,0,43.4,
1588,1,SBT2050,2,9,,1,4558,4.19997,0.7986,2124.186,0,43.2,
1588,1,SBT2050,2,9,,1,4607,4.20004,0.7917,2134.997,0,43.1,
1588,1,SBT2050,2,9,,1,4656,4.2001,0.7851,2145.724,0,42.9,
1588,1,SBT2050,2,9,,1,4705,4.20026,0.7798,2156.383,0,42.7,
1588,1,SBT2050,2,9,,1,4754,4.199862,0.7747,2166.965,0,42.7,
1588,1,SBT2050,2,9,,1,4803,4.20027,0.7704,2177.479,0,42.5,
1588,1,SBT2050,2,9,,1,4852,4.19987,0.7669,2187.944,0,42.5,
1588,1,SBT2050,2,9,,1,4901,4.20024,0.7639,2198.359,0,42.4,
1588,1,SBT2050,2,9,,1,4950,4.19998,0.7625,2208.747,0,42.3,
1588,1,SBT2050,2,9,,1,4999,4.19979,0.7594,2219.099,0,42.3,
1588,1,SBT2050,2,9,,1,5048,4.1999,0.7553,2229.402,0,42.2,
1588,1,SBT2050,2,9,,1,5097,4.19996,0.7533,2239.659,0,42.2,
1588,1,SBT2050,2,9,,1,5146,4.20004,0.7516,2249.899,0,42.2,
1588,1,SBT2050,2,9,,1,5195,4.20002,0.749,2260.109,0,42.2,
1588,1,SBT2050,2,9,,1,5244,4.200112,0.7484,2270.303,0,42,
1588,1,SBT2050,2,9,,1,5293,4.200148,0.7481,2280.485,0,42,
1588,1,SBT2050,2,9,,1,5342,4.20031,0.7471,2290.661,0,42,
1588,1,SBT2050,2,9,,1,5391,4.20004,0.7468,2300.818,0,42.1,
1588,1,SBT2050,2,9,,1,5440,4.19996,0.7465,2310.98,0,42.1,
1588,1,SBT2050,2,9,,1,5489,4.19987,0.7456,2321.131,0,42,
1588,1,SBT2050,2,9,,1,5538,4.20016,0.7442,2331.27,0,42.1,
1588,1,SBT2050,2,9,,1,5587,4.19993,0.7439,2341.395,0,42.1,
1588,1,SBT2050,2,9,,1,5636,4.20005,0.7451,2351.518,0,42.1,
1588,1,SBT2050,2,9,,1,5685,4.19997,0.7433,2361.646,0,42.1,
1588,1,SBT2050,2,9,,1,5734,4.20006,0.7434,2371.767,0,42.1,
1588,1,SBT2050,2,9,,1,5783,4.19995,0.7428,2381.882,0,42.1,
1588,1,SBT2050,2,9,,1,5832,4.19987,0.7415,2391.984,0,42.1,
1588,1,SBT2050,2,9,,1,5881,4.20005,0.7412,2402.073,0,42.1,
1588,1,SBT2050,2,9,,1,5930,4.19985,0.7419,2412.162,0,42.1,
1588,1,SBT2050,2,9,,1,5979,4.20002,0.743,2422.263,0,42.3,
1588,1,SBT2050,2,9,,1,6028,4.20016,0.7431,2432.381,0,42.2,
1588,1,SBT2050,2,9,,1,6077,4.19998,0.7442,2442.505,0,42.2,
1588,1,SBT2050,2,9,,1,6126,4.200136,0.7454,2452.639,0,42.3,
1588,1,SBT2050,2,9,,1,6175,4.19992,0.7463,2462.791,0,42.3,
1588,1,SBT2050,2,9,,1,6224,4.200172,0.7478,2472.96,0,42.3,
1588,1,SBT2050,2,9,,1,6273,4.2,0.7477,2483.147,0,42.4,
1588,1,SBT2050,2,9,,1,6322,4.19999,0.7489,2493.332,0,42.4,
1588,1,SBT2050,2,9,,1,6371,4.19992,0.7487,2503.514,0,42.4,
1588,1,SBT2050,2,9,,1,6420,4.20016,0.7469,2513.699,0,42.5,
1588,1,SBT2050,2,9,,1,6469,4.20003,0.7477,2523.875,0,42.6,
1588,1,SBT2050,2,9,,1,6518,4.200124,0.7489,2534.065,0,42.6,
1588,1,SBT2050,2,9,,1,6567,4.199552,0.7475,2544.241,0,42.6,
1588,1,SBT2050,2,9,,1,6616,4.200172,0.7433,2554.387,0,42.6,
1588,1,SBT2050,2,9,,1,6665,4.20003,0.7437,2564.514,0,42.6,
1588,1,SBT2050,2,9,,1,6714,4.200112,0.7439,2574.645,0,42.6,
1588,1,SBT2050,2,9,,1,6763,4.199838,0.7428,2584.762,0,42.6,
1588,1,SBT2050,2,9,,1,6812,4.19987,0.743,2594.874,0,42.7,
1588,1,SBT2050,2,9,,1,6861,4.19985,0.7431,2604.983,0,42.6,
1588,1,SBT2050,2,9,,1,6910,4.200112,0.7415,2615.079,0,42.7,
1588,1,SBT2050,2,9,,1,6959,4.19999,0.7404,2625.159,0,42.6,
1588,1,SBT2050,2,9,,1,7008,4.19995,0.7381,2635.214,0,42.7,
1588,1,SBT2050,2,9,,1,7057,4.20016,0.7363,2645.243,0,42.7,
1588,1,SBT2050,2,9,,1,7106,4.2001,0.7354,2655.257,0,42.6,
1588,1,SBT2050,2,9,,1,7155,4.19973,0.7331,2665.247,0,42.6,
1588,1,SBT2050,2,9,,1,7204,4.19998,0.7308,2675.208,0,42.6,
1588,1,SBT2050,2,9,,1,7253,4.19989,0.7292,2685.148,0,42.6,
1588,1,SBT2050,2,9,,1,7302,4.2004,0.7267,2695.055,0,42.5,
1588,1,SBT2050,2,9,,1,7351,4.200136,0.7248,2704.936,0,42.5,
1588,1,SBT2050,2,9,,1,7400,4.20005,0.7228,2714.8,0,42.6,
1588,1,SBT2050,2,9,,1,7449,4.20005,0.722,2724.633,0,42.5,
1588,1,SBT2050,2,9,,1,7498,4.19997,0.7193,2734.442,0,42.4,
1588,1,SBT2050,2,9,,1,7547,4.199838,0.716,2744.211,0,42.4,
1588,1,SBT2050,2,9,,1,7596,4.20006,0.7137,2753.945,0,42.4,
1588,1,SBT2050,2,9,,1,7645,4.19991,0.7125,2763.652,0,42.4,
1588,1,SBT2050,2,9,,1,7694,4.200136,0.7101,2773.332,0,42.3,
1588,1,SBT2050,2,9,,1,7743,4.19991,0.7078,2782.98,0,42.3,
1588,1,SBT2050,2,9,,1,7792,4.200172,0.7049,2792.592,0,42.3,
1588,1,SBT2050,2,9,,1,7841,4.200124,0.7011,2802.161,0,42.2,
1588,1,SBT2050,2,9,,1,7890,4.20005,0.6979,2811.687,0,42.1,
1588,1,SBT2050,2,9,,1,7939,4.2001,0.6941,2821.163,0,42.1,
1588,1,SBT2050,2,9,,1,7988,4.200124,0.6911,2830.591,0,42,
1588,1,SBT2050,2,9,,1,8037,4.20009,0.6878,2839.979,0,42,
1588,1,SBT2050,2,9,,1,8086,4.19997,0.6843,2849.316,0,41.9,
1588,1,SBT2050,2,9,,1,8135,4.2,0.6805,2858.604,0,41.8,
1588,1,SBT2050,2,9,,1,8184,4.20027,0.6779,2867.847,0,41.8,
1588,1,SBT2050,2,9,,1,8233,4.20004,0.6746,2877.052,0,41.6,
1588,1,SBT2050,2,9,,1,8282,4.19998,0.6712,2886.212,0,41.7,
1588,1,SBT2050,2,9,,1,8331,4.199862,0.6682,2895.33,0,41.6,
1588,1,SBT2050,2,9,,1,8380,4.20016,0.6645,2904.401,0,41.5,
1588,1,SBT2050,2,9,,1,8429,4.20021,0.6601,2913.419,0,41.4,
1588,1,SBT2050,2,9,,1,8474.68,4.199862,0.657,2921.777,0,,