Folder: OR-RG_ExpRes/ORRG (part 6)

File: Test1550.csv
Request Year:,2018,,,,,,,,,,,,
Test:,1550,,,,,,,,,,,,
Test Description:,,,,,,,,,,,,,
TestRegime Name:,Dchg_1C,,,,,,,,,,,,
TestRegime Suffix:,SHP_LC,,,,,,,,,,,,
TestRegime CellSize:,18650,,,,,,,,,,,,
TestRegime Version:,1,,,,,,,,,,,,
Number Of Cells:,1,,,,,,,,,,,,
LotID:,,,,,,,,,,,,,
Lot Description:,,,,,,,,,,,,,
Date Made:,1/21/2003 12:00 AM,,,,,,,,,,,,
Origin:,Other,,,,,,,,,,,,
Requestor:,Admin,,,,,,,,,,,,
Product ID:,Default product,,,,,,,,,,,,
Storage Temp:,R.T./AMB,,,,,,,,,,,,
Storage Delay:,0 days,,,,,,,,,,,,
Test Temp:,R.T./AMB,,,,,,,,,,,,
Start Time:,4/25/2018 8:19 AM,,,,,,,,,,,,
End Time:,4/25/2018 9:11 AM,,,,,,,,,,,,
Operator Instructions:,,,,,,,,,,,,,
Test,Cell,Rack,Shelf,Position,Cell ID,Step,Total Time (Seconds),Voltage (V),Current (A),Charge Capacity (mAh),Discharge Capacity (mAh),TC1 (Â°C),
1550,1,SBT2050,2,3,,0,1,4.10062,0,0,0,24.7,
1550,1,SBT2050,2,3,,0,19,4.10069,0,0,0,24.7,
1550,1,SBT2050,2,3,,0,37,4.100462,0,0,0,24.7,
1550,1,SBT2050,2,3,,0,55,4.10042,0,0,0,24.7,
1550,1,SBT2050,2,3,,1,73,3.81517,-2.6998,0,9.749,24.8,
1550,1,SBT2050,2,3,,1,91,3.78516,-2.6997,0,23.248,25.1,
1550,1,SBT2050,2,3,,1,109,3.76784,-2.6999,0,36.748,25.3,
1550,1,SBT2050,2,3,,1,127,3.75642,-2.7002,0,50.248,25.6,
1550,1,SBT2050,2,3,,1,145,3.74812,-2.7003,0,63.747,25.9,
1550,1,SBT2050,2,3,,1,163,3.74216,-2.6999,0,77.247,26.2,
1550,1,SBT2050,2,3,,1,181,3.73698,-2.7003,0,90.747,26.4,
1550,1,SBT2050,2,3,,1,199,3.73267,-2.7001,0,104.247,26.7,
1550,1,SBT2050,2,3,,1,217,3.7288,-2.6999,0,117.747,26.9,
1550,1,SBT2050,2,3,,1,235,3.72492,-2.6999,0,131.246,27.1,
1550,1,SBT2050,2,3,,1,253,3.72218,-2.6996,0,144.746,27.3,
1550,1,SBT2050,2,3,,1,271,3.718682,-2.7001,0,158.246,27.5,
1550,1,SBT2050,2,3,,1,289,3.715606,-2.6995,0,171.746,27.6,
1550,1,SBT2050,2,3,,1,307,3.71222,-2.6999,0,185.245,27.7,
1550,1,SBT2050,2,3,,1,325,3.70914,-2.6996,0,198.745,27.9,
1550,1,SBT2050,2,3,,1,343,3.7061,-2.6998,0,212.245,28,
1550,1,SBT2050,2,3,,1,361,3.70259,-2.7001,0,225.744,28.1,
1550,1,SBT2050,2,3,,1,379,3.698978,-2.6997,0,239.244,28.2,
1550,1,SBT2050,2,3,,1,397,3.69576,-2.6997,0,252.744,28.2,
1550,1,SBT2050,2,3,,1,415,3.69235,-2.7,0,266.244,28.3,
1550,1,SBT2050,2,3,,1,433,3.68861,-2.7002,0,279.743,28.4,
1550,1,SBT2050,2,3,,1,451,3.68495,-2.6997,0,293.243,28.5,
1550,1,SBT2050,2,3,,1,469,3.681138,-2.6996,0,306.743,28.5,
1550,1,SBT2050,2,3,,1,487,3.67739,-2.6998,0,320.243,28.6,
1550,1,SBT2050,2,3,,1,505,3.67366,-2.6999,0,333.742,28.6,
1550,1,SBT2050,2,3,,1,523,3.6695,-2.6998,0,347.242,28.7,
1550,1,SBT2050,2,3,,1,541,3.66584,-2.7001,0,360.742,28.7,
1550,1,SBT2050,2,3,,1,559,3.662,-2.7,0,374.242,28.7,
1550,1,SBT2050,2,3,,1,577,3.657936,-2.6999,0,387.741,28.8,
1550,1,SBT2050,2,3,,1,595,3.6536,-2.7003,0,401.241,28.8,
1550,1,SBT2050,2,3,,1,613,3.64991,-2.7002,0,414.741,28.8,
1550,1,SBT2050,2,3,,1,631,3.645664,-2.6995,0,428.241,28.9,
1550,1,SBT2050,2,3,,1,649,3.64147,-2.6999,0,441.74,28.9,
1550,1,SBT2050,2,3,,1,667,3.637238,-2.6997,0,455.24,28.9,
1550,1,SBT2050,2,3,,1,685,3.633142,-2.6997,0,468.74,28.9,
1550,1,SBT2050,2,3,,1,703,3.62841,-2.6997,0,482.239,28.9,
1550,1,SBT2050,2,3,,1,721,3.62439,-2.6997,0,495.739,28.9,
1550,1,SBT2050,2,3,,1,739,3.62015,-2.6998,0,509.239,29,
1550,1,SBT2050,2,3,,1,757,3.61563,-2.6996,0,522.739,28.9,
1550,1,SBT2050,2,3,,1,775,3.61116,-2.7,0,536.238,28.9,
1550,1,SBT2050,2,3,,1,793,3.60645,-2.6996,0,549.738,29,
1550,1,SBT2050,2,3,,1,811,3.60224,-2.7,0,563.238,29,
1550,1,SBT2050,2,3,,1,829,3.597328,-2.6999,0,576.738,29,
1550,1,SBT2050,2,3,,1,847,3.593,-2.7001,0,590.237,29,
1550,1,SBT2050,2,3,,1,865,3.58882,-2.6999,0,603.737,29,
1550,1,SBT2050,2,3,,1,883,3.584204,-2.6999,0,617.237,29,
1550,1,SBT2050,2,3,,1,901,3.57983,-2.7,0,630.737,29,
1550,1,SBT2050,2,3,,1,919,3.57496,-2.7,0,644.236,29,
1550,1,SBT2050,2,3,,1,937,3.57012,-2.7,0,657.736,29,
1550,1,SBT2050,2,3,,1,955,3.56573,-2.6997,0,671.236,29.1,
1550,1,SBT2050,2,3,,1,973,3.560966,-2.6997,0,684.735,29,
1550,1,SBT2050,2,3,,1,991,3.55609,-2.6998,0,698.235,29.1,
1550,1,SBT2050,2,3,,1,1009,3.5516,-2.6999,0,711.735,29.1,
1550,1,SBT2050,2,3,,1,1027,3.54694,-2.6999,0,725.235,29.1,
1550,1,SBT2050,2,3,,1,1045,3.54183,-2.6999,0,738.735,29.1,
1550,1,SBT2050,2,3,,1,1063,3.537268,-2.7001,0,752.234,29.1,
1550,1,SBT2050,2,3,,1,1081,3.53269,-2.7,0,765.734,29.1,
1550,1,SBT2050,2,3,,1,1099,3.52789,-2.6997,0,779.234,29.1,
1550,1,SBT2050,2,3,,1,1117,3.523254,-2.6999,0,792.733,29.1,
1550,1,SBT2050,2,3,,1,1135,3.51849,-2.6999,0,806.233,29.1,
1550,1,SBT2050,2,3,,1,1153,3.513854,-2.6998,0,819.733,29.1,
1550,1,SBT2050,2,3,,1,1171,3.50889,-2.6999,0,833.232,29.1,
1550,1,SBT2050,2,3,,1,1189,3.503852,-2.7002,0,846.732,29.2,
1550,1,SBT2050,2,3,,1,1207,3.49925,-2.6999,0,860.232,29.2,
1550,1,SBT2050,2,3,,1,1225,3.49432,-2.6998,0,873.731,29.1,
1550,1,SBT2050,2,3,,1,1243,3.48974,-2.7001,0,887.231,29.1,
1550,1,SBT2050,2,3,,1,1261,3.48456,-2.7001,0,900.731,29.1,
1550,1,SBT2050,2,3,,1,1279,3.47975,-2.7,0,914.231,29.2,
1550,1,SBT2050,2,3,,1,1297,3.47504,-2.7001,0,927.731,29.1,
1550,1,SBT2050,2,3,,1,1315,3.47021,-2.6995,0,941.23,29.1,
1550,1,SBT2050,2,3,,1,1333,3.465436,-2.6995,0,954.73,29.2,
1550,1,SBT2050,2,3,,1,1351,3.46035,-2.6998,0,968.23,29.2,
1550,1,SBT2050,2,3,,1,1369,3.45559,-2.7001,0,981.729,29.2,
1550,1,SBT2050,2,3,,1,1387,3.450802,-2.6999,0,995.229,29.2,
1550,1,SBT2050,2,3,,1,1405,3.446086,-2.7001,0,1008.729,29.2,
1550,1,SBT2050,2,3,,1,1423,3.441156,-2.6999,0,1022.228,29.2,
1550,1,SBT2050,2,3,,1,1441,3.4366,-2.6996,0,1035.728,29.2,
1550,1,SBT2050,2,3,,1,1459,3.43183,-2.7002,0,1049.228,29.2,
1550,1,SBT2050,2,3,,1,1477,3.427,-2.6998,0,1062.728,29.2,
1550,1,SBT2050,2,3,,1,1495,3.42227,-2.7001,0,1076.227,29.2,
1550,1,SBT2050,2,3,,1,1513,3.41743,-2.7001,0,1089.727,29.2,
1550,1,SBT2050,2,3,,1,1531,3.4127,-2.7002,0,1103.227,29.2,
1550,1,SBT2050,2,3,,1,1549,3.4078,-2.7,0,1116.727,29.2,
1550,1,SBT2050,2,3,,1,1567,3.40329,-2.6999,0,1130.226,29.2,
1550,1,SBT2050,2,3,,1,1585,3.3983,-2.7002,0,1143.726,29.2,
1550,1,SBT2050,2,3,,1,1603,3.39321,-2.6999,0,1157.226,29.3,
1550,1,SBT2050,2,3,,1,1621,3.388174,-2.7002,0,1170.726,29.3,
1550,1,SBT2050,2,3,,1,1639,3.38374,-2.7,0,1184.225,29.3,
1550,1,SBT2050,2,3,,1,1657,3.37873,-2.7002,0,1197.725,29.3,
1550,1,SBT2050,2,3,,1,1675,3.37392,-2.6997,0,1211.225,29.3,
1550,1,SBT2050,2,3,,1,1693,3.3691,-2.7002,0,1224.724,29.3,
1550,1,SBT2050,2,3,,1,1711,3.36419,-2.7003,0,1238.224,29.3,
1550,1,SBT2050,2,3,,1,1729,3.35964,-2.6997,0,1251.724,29.3,
1550,1,SBT2050,2,3,,1,1747,3.35462,-2.7,0,1265.224,29.3,
1550,1,SBT2050,2,3,,1,1765,3.34954,-2.7001,0,1278.723,29.3,
1550,1,SBT2050,2,3,,1,1783,3.34454,-2.7001,0,1292.223,29.3,
1550,1,SBT2050,2,3,,1,1801,3.33957,-2.7001,0,1305.723,29.4,
1550,1,SBT2050,2,3,,1,1819,3.33465,-2.6998,0,1319.222,29.4,
1550,1,SBT2050,2,3,,1,1837,3.32964,-2.6998,0,1332.722,29.4,
1550,1,SBT2050,2,3,,1,1855,3.32468,-2.6999,0,1346.222,29.4,
1550,1,SBT2050,2,3,,1,1873,3.31965,-2.6998,0,1359.722,29.4,
1550,1,SBT2050,2,3,,1,1891,3.31444,-2.6999,0,1373.221,29.4,
1550,1,SBT2050,2,3,,1,1909,3.30939,-2.6997,0,1386.721,29.5,
1550,1,SBT2050,2,3,,1,1927,3.30417,-2.6997,0,1400.221,29.5,
1550,1,SBT2050,2,3,,1,1945,3.29888,-2.6997,0,1413.72,29.5,
1550,1,SBT2050,2,3,,1,1963,3.29335,-2.6999,0,1427.22,29.5,
1550,1,SBT2050,2,3,,1,1981,3.28822,-2.7002,0,1440.72,29.6,
1550,1,SBT2050,2,3,,1,1999,3.28294,-2.7003,0,1454.219,29.6,
1550,1,SBT2050,2,3,,1,2017,3.27752,-2.7,0,1467.719,29.6,
1550,1,SBT2050,2,3,,1,2035,3.27214,-2.7,0,1481.219,29.6,
1550,1,SBT2050,2,3,,1,2053,3.26652,-2.7,0,1494.719,29.7,
1550,1,SBT2050,2,3,,1,2071,3.26079,-2.6999,0,1508.218,29.7,
1550,1,SBT2050,2,3,,1,2089,3.25498,-2.6999,0,1521.718,29.7,
1550,1,SBT2050,2,3,,1,2107,3.24923,-2.7003,0,1535.218,29.7,
1550,1,SBT2050,2,3,,1,2125,3.24351,-2.6999,0,1548.717,29.7,
1550,1,SBT2050,2,3,,1,2143,3.23735,-2.6999,0,1562.217,29.8,
1550,1,SBT2050,2,3,,1,2161,3.23126,-2.6999,0,1575.717,29.8,
1550,1,SBT2050,2,3,,1,2179,3.225251,-2.7004,0,1589.217,29.8,
1550,1,SBT2050,2,3,,1,2197,3.218941,-2.7001,0,1602.716,29.9,
1550,1,SBT2050,2,3,,1,2215,3.21265,-2.6996,0,1616.216,29.9,
1550,1,SBT2050,2,3,,1,2233,3.20615,-2.6998,0,1629.716,30,
1550,1,SBT2050,2,3,,1,2251,3.1999,-2.6996,0,1643.215,30,
1550,1,SBT2050,2,3,,1,2269,3.19332,-2.6996,0,1656.715,30,
1550,1,SBT2050,2,3,,1,2287,3.186338,-2.7001,0,1670.215,30.1,
1550,1,SBT2050,2,3,,1,2305,3.17941,-2.6998,0,1683.714,30.1,
1550,1,SBT2050,2,3,,1,2323,3.17231,-2.7001,0,1697.214,30.2,
1550,1,SBT2050,2,3,,1,2341,3.165091,-2.6998,0,1710.714,30.3,
1550,1,SBT2050,2,3,,1,2359,3.157697,-2.7,0,1724.214,30.3,
1550,1,SBT2050,2,3,,1,2377,3.14997,-2.6999,0,1737.713,30.4,
1550,1,SBT2050,2,3,,1,2395,3.14216,-2.6996,0,1751.213,30.4,
1550,1,SBT2050,2,3,,1,2413,3.134,-2.6999,0,1764.713,30.5,
1550,1,SBT2050,2,3,,1,2431,3.12586,-2.6998,0,1778.212,30.5,
1550,1,SBT2050,2,3,,1,2449,3.11747,-2.7,0,1791.712,30.5,
1550,1,SBT2050,2,3,,1,2467,3.10897,-2.6999,0,1805.212,30.6,
1550,1,SBT2050,2,3,,1,2485,3.09995,-2.7,0,1818.712,30.6,
1550,1,SBT2050,2,3,,1,2503,3.09069,-2.7,0,1832.211,30.7,
1550,1,SBT2050,2,3,,1,2521,3.08126,-2.7001,0,1845.711,30.8,
1550,1,SBT2050,2,3,,1,2539,3.07179,-2.7,0,1859.211,30.8,
1550,1,SBT2050,2,3,,1,2557,3.06174,-2.6999,0,1872.711,30.9,
1550,1,SBT2050,2,3,,1,2575,3.051756,-2.7,0,1886.21,31,
1550,1,SBT2050,2,3,,1,2593,3.04123,-2.6996,0,1899.71,31,
1550,1,SBT2050,2,3,,1,2611,3.03033,-2.6999,0,1913.21,31.1,
1550,1,SBT2050,2,3,,1,2629,3.01891,-2.7004,0,1926.71,31.2,
1550,1,SBT2050,2,3,,1,2647,3.0072,-2.6996,0,1940.209,31.3,
1550,1,SBT2050,2,3,,1,2665,2.99505,-2.6997,0,1953.709,31.4,
1550,1,SBT2050,2,3,,1,2683,2.9823,-2.7,0,1967.209,31.5,
1550,1,SBT2050,2,3,,1,2701,2.96894,-2.7002,0,1980.709,31.6,
1550,1,SBT2050,2,3,,1,2719,2.95493,-2.6997,0,1994.208,31.6,
1550,1,SBT2050,2,3,,1,2737,2.94064,-2.6997,0,2007.708,31.7,
1550,1,SBT2050,2,3,,1,2755,2.925,-2.6997,0,2021.208,31.9,
1550,1,SBT2050,2,3,,1,2773,2.908723,-2.7,0,2034.707,32,
1550,1,SBT2050,2,3,,1,2791,2.89152,-2.7002,0,2048.207,32.1,
1550,1,SBT2050,2,3,,1,2809,2.87299,-2.6999,0,2061.707,32.2,
1550,1,SBT2050,2,3,,1,2827,2.853224,-2.6997,0,2075.207,32.3,
1550,1,SBT2050,2,3,,1,2845,2.8326,-2.6998,0,2088.706,32.5,
1550,1,SBT2050,2,3,,1,2863,2.81028,-2.7001,0,2102.206,32.6,
1550,1,SBT2050,2,3,,1,2881,2.78668,-2.7003,0,2115.706,32.7,
1550,1,SBT2050,2,3,,1,2899,2.7613,-2.6997,0,2129.206,32.9,
1550,1,SBT2050,2,3,,1,2917,2.73387,-2.6997,0,2142.705,33.1,
1550,1,SBT2050,2,3,,1,2935,2.70397,-2.6999,0,2156.205,33.3,
1550,1,SBT2050,2,3,,1,2953,2.67078,-2.6999,0,2169.705,33.5,
1550,1,SBT2050,2,3,,1,2971,2.63259,-2.7,0,2183.204,33.7,
1550,1,SBT2050,2,3,,1,2989,2.588604,-2.7,0,2196.704,33.9,
1550,1,SBT2050,2,3,,1,3007,2.53645,-2.7,0,2210.204,34.2,
1550,1,SBT2050,2,3,,2,3024,3.06166,0,0,2218.352,34.4,
1550,1,SBT2050,2,3,,2,3042,3.207663,0,0,2218.352,34.1,
1550,1,SBT2050,2,3,,2,3060,3.253347,0,0,2218.352,33.6,
1550,1,SBT2050,2,3,,2,3077.864,3.27967,-9.9E-05,0,2218.352,,

File: Test1552.csv
Request Year:,2018,,,,,,,,,,,,
Test:,1552,,,,,,,,,,,,
Test Description:,,,,,,,,,,,,,
TestRegime Name:,Aging_test caseB_1,,,,,,,,,,,,
TestRegime Suffix:,SHP_LC,,,,,,,,,,,,
TestRegime CellSize:,18650,,,,,,,,,,,,
TestRegime Version:,3,,,,,,,,,,,,
Number Of Cells:,1,,,,,,,,,,,,
LotID:,,,,,,,,,,,,,
Lot Description:,,,,,,,,,,,,,
Date Made:,1/21/2003 12:00 AM,,,,,,,,,,,,
Origin:,Other,,,,,,,,,,,,
Requestor:,Admin,,,,,,,,,,,,
Product ID:,Default product,,,,,,,,,,,,
Storage Temp:,R.T./AMB,,,,,,,,,,,,
Storage Delay:,0 days,,,,,,,,,,,,
Test Temp:,R.T./AMB,,,,,,,,,,,,
Start Time:,4/25/2018 9:41 AM,,,,,,,,,,,,
End Time:,4/25/2018 10:56 AM,,,,,,,,,,,,
Operator Instructions:,,,,,,,,,,,,,
Test,Cell,Rack,Shelf,Position,Cell ID,Step,Total Time (Seconds),Voltage (V),Current (A),Charge Capacity (mAh),Discharge Capacity (mAh),Trs (Â°C),
1552,1,SBT2050,2,3,,0,0.1,3.37248,0,0,0,,
1552,1,SBT2050,2,3,,0,23.4,3.372678,0,0,0,,
1552,1,SBT2050,2,3,,0,46.7,3.37261,0,0,0,,
1552,1,SBT2050,2,3,,0,70,3.37268,0,0,0,,
1552,1,SBT2050,2,3,,0,93.3,3.37279,0,0,0,,
1552,1,SBT2050,2,3,,0,116.6,3.37274,0,0,0,,
1552,1,SBT2050,2,3,,0,139.9,3.37288,0,0,0,,
1552,1,SBT2050,2,3,,0,163.2,3.37302,0,0,0,,
1552,1,SBT2050,2,3,,0,186.5,3.37308,0,0,0,,
1552,1,SBT2050,2,3,,0,209.8,3.37334,0,0,0,,
1552,1,SBT2050,2,3,,0,233.1,3.37343,0,0,0,,
1552,1,SBT2050,2,3,,0,256.4,3.37349,0,0,0,,
1552,1,SBT2050,2,3,,0,279.7,3.37384,0,0,0,,
1552,1,SBT2050,2,3,,0,303,3.37409,0,0,0,,
1552,1,SBT2050,2,3,,0,326.3,3.3738,0,0,0,,
1552,1,SBT2050,2,3,,0,349.6,3.37391,0,0,0,,
1552,1,SBT2050,2,3,,0,372.9,3.37382,0,0,0,,
1552,1,SBT2050,2,3,,0,396.2,3.37409,0,0,0,,
1552,1,SBT2050,2,3,,0,419.5,3.37408,0,0,0,,
1552,1,SBT2050,2,3,,0,442.8,3.37429,0,0,0,,
1552,1,SBT2050,2,3,,0,466.1,3.37428,0,0,0,,
1552,1,SBT2050,2,3,,0,489.4,3.3744,0,0,0,,
1552,1,SBT2050,2,3,,0,512.7,3.37434,0,0,0,,
1552,1,SBT2050,2,3,,0,536,3.37461,0,0,0,,
1552,1,SBT2050,2,3,,0,559.3,3.37467,0,0,0,,
1552,1,SBT2050,2,3,,0,582.6,3.374796,0,0,0,,
1552,1,SBT2050,2,3,,0,605.9,3.37484,0,0,0,,
1552,1,SBT2050,2,3,,0,629.2,3.37484,0,0,0,,
1552,1,SBT2050,2,3,,0,652.5,3.37494,0,0,0,,
1552,1,SBT2050,2,3,,0,675.8,3.374938,0,0,0,,
1552,1,SBT2050,2,3,,0,699.1,3.37514,0,0,0,,
1552,1,SBT2050,2,3,,0,722.4,3.37501,0,0,0,,
1552,1,SBT2050,2,3,,0,745.7,3.37523,0,0,0,,
1552,1,SBT2050,2,3,,0,769,3.37525,0,0,0,,
1552,1,SBT2050,2,3,,0,792.3,3.37514,0,0,0,,
1552,1,SBT2050,2,3,,0,815.6,3.37511,0,0,0,,
1552,1,SBT2050,2,3,,0,838.9,3.37555,0,0,0,,
1552,1,SBT2050,2,3,,0,862.2,3.37552,0,0,0,,
1552,1,SBT2050,2,3,,0,885.5,3.3755,0,0,0,,
1552,1,SBT2050,2,3,,0,908.8,3.375854,0,0,0,,
1552,1,SBT2050,2,3,,0,932.1,3.375524,0,0,0,,
1552,1,SBT2050,2,3,,0,955.4,3.37585,0,0,0,,
1552,1,SBT2050,2,3,,0,978.7,3.376092,0,0,0,,
1552,1,SBT2050,2,3,,0,1002,3.37596,0,0,0,25.1,
1552,1,SBT2050,2,3,,0,1025.3,3.37622,0,0,0,,
1552,1,SBT2050,2,3,,0,1048.6,3.37631,0,0,0,,
1552,1,SBT2050,2,3,,0,1071.9,3.3762,0,0,0,,
1552,1,SBT2050,2,3,,0,1095.2,3.37641,0,0,0,,
1552,1,SBT2050,2,3,,0,1118.5,3.37628,0,0,0,,
1552,1,SBT2050,2,3,,0,1141.8,3.37628,0,0,0,,
1552,1,SBT2050,2,3,,0,1165.1,3.37651,0,0,0,,
1552,1,SBT2050,2,3,,0,1188.4,3.37664,0,0,0,,
1552,1,SBT2050,2,3,,0,1211.7,3.37645,0,0,0,,
1552,1,SBT2050,2,3,,0,1235,3.37654,0,0,0,,
1552,1,SBT2050,2,3,,0,1258.3,3.37675,0,0,0,,
1552,1,SBT2050,2,3,,0,1281.6,3.37678,0,0,0,,
1552,1,SBT2050,2,3,,0,1304.9,3.37682,0,0,0,,
1552,1,SBT2050,2,3,,0,1328.2,3.37671,0,0,0,,
1552,1,SBT2050,2,3,,0,1351.5,3.37696,0,0,0,,
1552,1,SBT2050,2,3,,0,1374.8,3.37702,0,0,0,,
1552,1,SBT2050,2,3,,0,1398.1,3.37691,0,0,0,,
1552,1,SBT2050,2,3,,0,1421.4,3.37709,0,0,0,,
1552,1,SBT2050,2,3,,0,1444.7,3.3769,0,0,0,,
1552,1,SBT2050,2,3,,0,1468,3.37723,0,0,0,,
1552,1,SBT2050,2,3,,0,1491.3,3.37716,0,0,0,,
1552,1,SBT2050,2,3,,0,1514.6,3.377458,0,0,0,,
1552,1,SBT2050,2,3,,0,1537.9,3.37761,0,0,0,,
1552,1,SBT2050,2,3,,0,1561.2,3.37783,0,0,0,,
1552,1,SBT2050,2,3,,0,1584.5,3.3775,0,0,0,,
1552,1,SBT2050,2,3,,0,1607.8,3.3774,0,0,0,,
1552,1,SBT2050,2,3,,0,1631.1,3.377708,0,0,0,,
1552,1,SBT2050,2,3,,0,1654.4,3.37753,0,0,0,,
1552,1,SBT2050,2,3,,0,1677.7,3.37776,0,0,0,,
1552,1,SBT2050,2,3,,0,1701,3.37786,0,0,0,,
1552,1,SBT2050,2,3,,0,1724.3,3.37767,0,0,0,,
1552,1,SBT2050,2,3,,0,1747.6,3.37782,0,0,0,,
1552,1,SBT2050,2,3,,0,1770.9,3.37782,0,0,0,,
1552,1,SBT2050,2,3,,0,1794.2,3.37789,0,0,0,,
1552,1,SBT2050,2,3,,7,1817.3,3.92545,8.38,21.778,0,,
1552,1,SBT2050,2,3,,7,1840.3,4.03096,8.235,77.571,0,,
1552,1,SBT2050,2,3,,7,1863.4,4.03207,7.676,128.502,0,,
1552,1,SBT2050,2,3,,7,1886.4,4.01267,7.24,176.05,0,,
1552,1,SBT2050,2,3,,7,1909.5,3.99222,6.884,221.326,0,,
1552,1,SBT2050,2,3,,7,1932.5,3.97765,6.617,264.47,0,,
1552,1,SBT2050,2,3,,7,1955.5,3.96732,6.401,306.083,0,,
1552,1,SBT2050,2,3,,7,1978.6,3.96107,6.229,346.633,0,,
1552,1,SBT2050,2,3,,7,2001.6,3.95882,6.099,386.032,0,,
1552,1,SBT2050,2,3,,7,2024.7,3.95819,5.968,424.748,0,,
1552,1,SBT2050,2,3,,7,2047.7,3.959746,5.854,462.538,0,,
1552,1,SBT2050,2,3,,7,2070.8,3.96244,5.749,499.791,0,,
1552,1,SBT2050,2,3,,7,2093.8,3.96551,5.636,536.144,0,,
1552,1,SBT2050,2,3,,7,2116.9,3.96927,5.522,571.932,0,,
1552,1,SBT2050,2,3,,7,2139.9,3.97376,5.419,606.846,0,,
1552,1,SBT2050,2,3,,7,2162.9,3.97804,5.307,641.098,0,,
1552,1,SBT2050,2,3,,7,2186,3.98314,5.2,674.878,0,,
1552,1,SBT2050,2,3,,7,2209,3.98691,5.086,707.722,0,,
1552,1,SBT2050,2,3,,7,2232.1,3.99079,4.969,739.986,0,,
1552,1,SBT2050,2,3,,7,2255.1,3.99556,4.867,771.472,0,,
1552,1,SBT2050,2,3,,7,2278.2,3.999466,4.752,802.344,0,,
1552,1,SBT2050,2,3,,7,2301.2,4.00412,4.6463,832.378,0,,
1552,1,SBT2050,2,3,,7,2324.3,4.00776,4.5317,861.806,0,,
1552,1,SBT2050,2,3,,7,2347.3,4.01199,4.4228,890.432,0,,
1552,1,SBT2050,2,3,,7,2370.3,4.01641,4.3288,918.387,0,,
1552,1,SBT2050,2,3,,7,2393.4,4.02028,4.2234,945.808,0,,
1552,1,SBT2050,2,3,,7,2416.4,4.02573,4.1472,972.527,0,,
1552,1,SBT2050,2,3,,7,2439.5,4.032342,4.0902,998.939,0,,
1552,1,SBT2050,2,3,,7,2462.5,4.03887,4.0252,1024.851,0,,
1552,1,SBT2050,2,3,,7,2485.6,4.0448,3.9472,1050.439,0,,
1552,1,SBT2050,2,3,,7,2508.6,4.05085,3.8849,1075.472,0,,
1552,1,SBT2050,2,3,,7,2531.6,4.05675,3.8173,1100.109,0,,
1552,1,SBT2050,2,3,,7,2554.7,4.0627,3.7519,1124.409,0,,
1552,1,SBT2050,2,3,,7,2577.7,4.06853,3.6974,1148.216,0,,
1552,1,SBT2050,2,3,,7,2600.8,4.07463,3.6326,1171.711,0,,
1552,1,SBT2050,2,3,,7,2623.8,4.08001,3.5679,1194.731,0,,
1552,1,SBT2050,2,3,,7,2646.9,4.08526,3.5059,1217.431,0,,
1552,1,SBT2050,2,3,,7,2669.9,4.090258,3.442,1239.634,0,,
1552,1,SBT2050,2,3,,7,2693,4.09491,3.3814,1261.531,0,34.7,
1552,1,SBT2050,2,3,,7,2716,4.09996,3.3185,1282.924,0,,
1552,1,SBT2050,2,3,,7,2739,4.104,3.2505,1303.877,0,,
1552,1,SBT2050,2,3,,7,2762.1,4.107778,3.1727,1324.515,0,,
1552,1,SBT2050,2,3,,7,2785.1,4.11237,3.1174,1344.616,0,,
1552,1,SBT2050,2,3,,7,2808.2,4.11585,3.0465,1364.377,0,,
1552,1,SBT2050,2,3,,7,2831.2,4.11965,2.979,1383.656,0,,
1552,1,SBT2050,2,3,,7,2854.3,4.12338,2.9187,1402.593,0,,
1552,1,SBT2050,2,3,,7,2877.3,4.12842,2.8828,1421.128,0,,
1552,1,SBT2050,2,3,,7,2900.4,4.13266,2.8339,1439.456,0,,
1552,1,SBT2050,2,3,,7,2923.4,4.1381,2.7965,1457.421,0,,
1552,1,SBT2050,2,3,,7,2946.4,4.14196,2.745,1475.156,0,,
1552,1,SBT2050,2,3,,7,2969.5,4.14635,2.7023,1492.619,0,,
1552,1,SBT2050,2,3,,7,2992.5,4.15153,2.6749,1509.752,0,,
1552,1,SBT2050,2,3,,7,3015.6,4.15593,2.6256,1526.752,0,,
1552,1,SBT2050,2,3,,7,3038.6,4.15994,2.5753,1543.378,0,,
1552,1,SBT2050,2,3,,7,3061.7,4.165058,2.5462,1559.827,0,,
1552,1,SBT2050,2,3,,7,3084.7,4.16884,2.4952,1575.95,0,,
1552,1,SBT2050,2,3,,7,3107.701,4.17333,2.4645,1591.796,0,,
1552,1,SBT2050,2,3,,7,3130.8,4.17825,2.4345,1607.49,0,,
1552,1,SBT2050,2,3,,7,3153.8,4.18189,2.387,1622.887,0,,
1552,1,SBT2050,2,3,,7,3176.9,4.18609,2.3539,1638.105,0,,
1552,1,SBT2050,2,3,,7,3199.9,4.19075,2.3229,1653.022,0,,
1552,1,SBT2050,2,3,,7,3223,4.1954,2.292,1667.822,0,,
1552,1,SBT2050,2,3,,7,3246,4.199692,2.2568,1682.341,0,31,
1552,1,SBT2050,2,3,,7,3269.1,4.20389,2.2218,1696.709,0,,
1552,1,SBT2050,2,3,,7,3292.1,4.20744,2.1808,1710.768,0,,
1552,1,SBT2050,2,3,,7,3315.1,4.21146,2.1508,1724.631,0,,
1552,1,SBT2050,2,3,,7,3338.2,4.2153,2.118,1738.347,0,,
1552,1,SBT2050,2,3,,7,3361.2,4.219456,2.0859,1751.775,0,,
1552,1,SBT2050,2,3,,7,3384.3,4.22359,2.0552,1765.064,0,,
1552,1,SBT2050,2,3,,7,3407.3,4.22724,2.0232,1778.088,0,,
1552,1,SBT2050,2,3,,7,3430.4,4.23161,1.9933,1790.993,0,,
1552,1,SBT2050,2,3,,7,3453.4,4.235218,1.9613,1803.625,0,,
1552,1,SBT2050,2,3,,7,3476.5,4.23919,1.9344,1816.134,0,,
1552,1,SBT2050,2,3,,7,3499.5,4.24322,1.9031,1828.403,0,,
1552,1,SBT2050,2,3,,7,3522.5,4.24717,1.8812,1840.481,0,,
1552,1,SBT2050,2,3,,7,3545.6,4.25065,1.8509,1852.433,0,,
1552,1,SBT2050,2,3,,7,3568.6,4.25448,1.8206,1864.153,0,,
1552,1,SBT2050,2,3,,7,3591.7,4.25789,1.7902,1875.753,0,,
1552,1,SBT2050,2,3,,7,3614.7,4.26218,1.7651,1887.13,0,,
1552,1,SBT2050,2,3,,7,3637.8,4.26584,1.7371,1898.37,0,,
1552,1,SBT2050,2,3,,7,3660.8,4.27001,1.7133,1909.402,0,,
1552,1,SBT2050,2,3,,7,3683.829,4.27324,1.6838,1920.249,0,,
1552,1,SBT2050,2,3,,7,3706.9,4.27644,1.6541,1930.945,0,,
1552,1,SBT2050,2,3,,7,3729.9,4.28003,1.6252,1941.422,0,,
1552,1,SBT2050,2,3,,7,3753,4.284468,1.6079,1951.796,0,,
1552,1,SBT2050,2,3,,7,3776,4.28771,1.5812,1961.969,0,,
1552,1,SBT2050,2,3,,7,3799.1,4.29106,1.5524,1972.022,0,,
1552,1,SBT2050,2,3,,7,3822.1,4.295236,1.5325,1981.89,0,,
1552,1,SBT2050,2,3,,7,3845.2,4.29853,1.5088,1991.642,0,,
1552,1,SBT2050,2,3,,7,3868.2,4.302804,1.4943,2001.234,0,,
1552,1,SBT2050,2,3,,7,3891.2,4.3066,1.4658,2010.666,0,,
1552,1,SBT2050,2,3,,7,3914.3,4.30923,1.4374,2019.966,0,,
1552,1,SBT2050,2,3,,7,3937.3,4.31363,1.4245,2029.108,0,,
1552,1,SBT2050,2,3,,7,3960.4,4.31676,1.3966,2038.126,0,,
1552,1,SBT2050,2,3,,7,3983.4,4.32047,1.3744,2046.999,0,,
1552,1,SBT2050,2,3,,7,4006.5,4.32413,1.3559,2055.745,0,,
1552,1,SBT2050,2,3,,7,4029.5,4.327472,1.3293,2064.333,0,,
1552,1,SBT2050,2,3,,7,4052.6,4.33161,1.3167,2072.82,0,,
1552,1,SBT2050,2,3,,7,4075.6,4.33435,1.2903,2081.134,0,,
1552,1,SBT2050,2,3,,7,4098.6,4.33876,1.2786,2089.338,0,,
1552,1,SBT2050,2,3,,7,4121.7,4.34164,1.2517,2097.443,0,,
1552,1,SBT2050,2,3,,7,4144.7,4.34586,1.2403,2105.405,0,,
1552,1,SBT2050,2,3,,7,4167.8,4.34818,1.2148,2113.278,0,,
1552,1,SBT2050,2,3,,7,4190.8,4.353094,1.2037,2121.003,0,,
1552,1,SBT2050,2,3,,7,4213.9,4.35715,1.1852,2128.674,0,,
1552,1,SBT2050,2,3,,7,4236.9,4.36037,1.1674,2136.174,0,,
1552,1,SBT2050,2,3,,7,4259.957,4.36462,1.157,2143.618,0,,
1552,1,SBT2050,2,3,,7,4283,4.36779,1.133,2150.932,0,,
1552,1,SBT2050,2,3,,7,4306,4.371666,1.1215,2158.132,0,,
1552,1,SBT2050,2,3,,7,4329.1,4.37418,1.0972,2165.241,0,,
1552,1,SBT2050,2,3,,7,4352.1,4.37808,1.0877,2172.221,0,,
1552,1,SBT2050,2,3,,7,4375.2,4.38289,1.0776,2179.168,0,,
1552,1,SBT2050,2,3,,7,4398.2,4.385818,1.0572,2185.964,0,,
1552,1,SBT2050,2,3,,7,4421.3,4.38953,1.0444,2192.699,0,,
1552,1,SBT2050,2,3,,7,4444.3,4.39369,1.0347,2199.34,0,,
1552,1,SBT2050,2,3,,7,4467.3,4.396414,1.0117,2205.879,0,,
1552,1,SBT2050,2,3,,7,4487.225,4.400012,1.0033,2211.454,0,,