Folder: OR-RG_ExpRes/ORRG (part 14)

File: Test1587.csv
Request Year:,2018,,,,,,,,,,,,
Test:,1587,,,,,,,,,,,,
Test Description:,,,,,,,,,,,,,
TestRegime Name:,Dchg_1C,,,,,,,,,,,,
TestRegime Suffix:,SHP_LC,,,,,,,,,,,,
TestRegime CellSize:,18650,,,,,,,,,,,,
TestRegime Version:,1,,,,,,,,,,,,
Number Of Cells:,1,,,,,,,,,,,,
LotID:,,,,,,,,,,,,,
Lot Description:,,,,,,,,,,,,,
Date Made:,1/21/2003 12:00 AM,,,,,,,,,,,,
Origin:,Other,,,,,,,,,,,,
Requestor:,Admin,,,,,,,,,,,,
Product ID:,Default product,,,,,,,,,,,,
Storage Temp:,R.T./AMB,,,,,,,,,,,,
Storage Delay:,0 days,,,,,,,,,,,,
Test Temp:,R.T./AMB,,,,,,,,,,,,
Start Time:,5/3/2018 4:46 AM,,,,,,,,,,,,
End Time:,5/3/2018 5:31 AM,,,,,,,,,,,,
Operator Instructions:,,,,,,,,,,,,,
Test,Cell,Rack,Shelf,Position,Cell ID,Step,Total Time (Seconds),Voltage (V),Current (A),Charge Capacity (mAh),Discharge Capacity (mAh),TC1 (Â°C),
1587,1,SBT2050,2,3,,0,1,3.97917,0,0,0,25.8,
1587,1,SBT2050,2,3,,0,17,3.9792,0,0,0,25.8,
1587,1,SBT2050,2,3,,0,33,3.97925,0,0,0,25.8,
1587,1,SBT2050,2,3,,0,49,3.97913,0,0,0,25.8,
1587,1,SBT2050,2,3,,1,65,3.78559,-2.7004,0,3.749,25.8,
1587,1,SBT2050,2,3,,1,81,3.74751,-2.6998,0,15.749,26,
1587,1,SBT2050,2,3,,1,97,3.72783,-2.6996,0,27.748,26.1,
1587,1,SBT2050,2,3,,1,113,3.71453,-2.6999,0,39.748,26.4,
1587,1,SBT2050,2,3,,1,129,3.70458,-2.7002,0,51.748,26.5,
1587,1,SBT2050,2,3,,1,145,3.69628,-2.6998,0,63.748,26.7,
1587,1,SBT2050,2,3,,1,161,3.68933,-2.6999,0,75.747,26.8,
1587,1,SBT2050,2,3,,1,177,3.68308,-2.6996,0,87.747,27,
1587,1,SBT2050,2,3,,1,193,3.67793,-2.6995,0,99.747,27.2,
1587,1,SBT2050,2,3,,1,209,3.67317,-2.6998,0,111.747,27.3,
1587,1,SBT2050,2,3,,1,225,3.66803,-2.7001,0,123.746,27.4,
1587,1,SBT2050,2,3,,1,241,3.66346,-2.6997,0,135.746,27.6,
1587,1,SBT2050,2,3,,1,257,3.65896,-2.7,0,147.746,27.7,
1587,1,SBT2050,2,3,,1,273,3.65475,-2.6999,0,159.746,27.8,
1587,1,SBT2050,2,3,,1,289,3.65058,-2.6998,0,171.745,27.9,
1587,1,SBT2050,2,3,,1,305,3.64625,-2.6996,0,183.745,28,
1587,1,SBT2050,2,3,,1,321,3.64233,-2.7001,0,195.745,28,
1587,1,SBT2050,2,3,,1,337,3.63829,-2.7002,0,207.745,28.2,
1587,1,SBT2050,2,3,,1,353,3.63429,-2.7002,0,219.744,28.2,
1587,1,SBT2050,2,3,,1,369,3.63034,-2.6998,0,231.744,28.3,
1587,1,SBT2050,2,3,,1,385,3.626016,-2.7003,0,243.744,28.4,
1587,1,SBT2050,2,3,,1,401,3.62196,-2.6998,0,255.744,28.4,
1587,1,SBT2050,2,3,,1,417,3.61851,-2.6999,0,267.744,28.5,
1587,1,SBT2050,2,3,,1,433,3.61427,-2.6999,0,279.743,28.5,
1587,1,SBT2050,2,3,,1,449,3.610464,-2.6999,0,291.743,28.6,
1587,1,SBT2050,2,3,,1,465,3.60625,-2.6999,0,303.743,28.7,
1587,1,SBT2050,2,3,,1,481,3.60286,-2.6999,0,315.743,28.7,
1587,1,SBT2050,2,3,,1,497,3.59844,-2.7002,0,327.742,28.7,
1587,1,SBT2050,2,3,,1,513,3.594616,-2.6998,0,339.742,28.8,
1587,1,SBT2050,2,3,,1,529,3.59058,-2.6997,0,351.742,28.8,
1587,1,SBT2050,2,3,,1,545,3.58664,-2.6999,0,363.741,28.9,
1587,1,SBT2050,2,3,,1,561,3.58286,-2.7001,0,375.741,28.9,
1587,1,SBT2050,2,3,,1,577,3.57865,-2.6999,0,387.741,28.9,
1587,1,SBT2050,2,3,,1,593,3.57422,-2.6999,0,399.741,29,
1587,1,SBT2050,2,3,,1,609,3.57038,-2.7001,0,411.74,29,
1587,1,SBT2050,2,3,,1,625,3.56616,-2.7001,0,423.74,29,
1587,1,SBT2050,2,3,,1,641,3.562134,-2.6998,0,435.74,29.1,
1587,1,SBT2050,2,3,,1,657,3.55826,-2.7002,0,447.74,29.1,
1587,1,SBT2050,2,3,,1,673,3.55405,-2.6994,0,459.739,29.1,
1587,1,SBT2050,2,3,,1,689,3.54945,-2.7002,0,471.739,29.2,
1587,1,SBT2050,2,3,,1,705,3.54545,-2.6997,0,483.739,29.2,
1587,1,SBT2050,2,3,,1,721,3.54106,-2.7,0,495.739,29.2,
1587,1,SBT2050,2,3,,1,737,3.536952,-2.7,0,507.739,29.2,
1587,1,SBT2050,2,3,,1,753,3.53257,-2.6998,0,519.738,29.2,
1587,1,SBT2050,2,3,,1,769,3.52843,-2.7,0,531.738,29.2,
1587,1,SBT2050,2,3,,1,785,3.52382,-2.7001,0,543.738,29.3,
1587,1,SBT2050,2,3,,1,801,3.51955,-2.6999,0,555.738,29.3,
1587,1,SBT2050,2,3,,1,817,3.51556,-2.6998,0,567.737,29.3,
1587,1,SBT2050,2,3,,1,833,3.51121,-2.7003,0,579.737,29.3,
1587,1,SBT2050,2,3,,1,849,3.50718,-2.6996,0,591.737,29.3,
1587,1,SBT2050,2,3,,1,865,3.50243,-2.6999,0,603.737,29.3,
1587,1,SBT2050,2,3,,1,881,3.49845,-2.7003,0,615.737,29.3,
1587,1,SBT2050,2,3,,1,897,3.4939,-2.6999,0,627.736,29.4,
1587,1,SBT2050,2,3,,1,913,3.48968,-2.6999,0,639.736,29.4,
1587,1,SBT2050,2,3,,1,929,3.485156,-2.6996,0,651.736,29.4,
1587,1,SBT2050,2,3,,1,945,3.480704,-2.7002,0,663.735,29.4,
1587,1,SBT2050,2,3,,1,961,3.47659,-2.7002,0,675.735,29.4,
1587,1,SBT2050,2,3,,1,977,3.47224,-2.6998,0,687.735,29.4,
1587,1,SBT2050,2,3,,1,993,3.4679,-2.6998,0,699.735,29.4,
1587,1,SBT2050,2,3,,1,1009,3.463526,-2.6999,0,711.734,29.4,
1587,1,SBT2050,2,3,,1,1025,3.45925,-2.6999,0,723.734,29.4,
1587,1,SBT2050,2,3,,1,1041,3.45506,-2.7,0,735.734,29.4,
1587,1,SBT2050,2,3,,1,1057,3.45059,-2.7002,0,747.734,29.4,
1587,1,SBT2050,2,3,,1,1073,3.44617,-2.7,0,759.733,29.5,
1587,1,SBT2050,2,3,,1,1089,3.44188,-2.6999,0,771.733,29.5,
1587,1,SBT2050,2,3,,1,1105,3.43794,-2.6999,0,783.733,29.5,
1587,1,SBT2050,2,3,,1,1121,3.433514,-2.7002,0,795.733,29.5,
1587,1,SBT2050,2,3,,1,1137,3.42922,-2.7,0,807.733,29.5,
1587,1,SBT2050,2,3,,1,1153,3.42502,-2.7001,0,819.733,29.5,
1587,1,SBT2050,2,3,,1,1169,3.42092,-2.7,0,831.732,29.5,
1587,1,SBT2050,2,3,,1,1185,3.41663,-2.7001,0,843.732,29.5,
1587,1,SBT2050,2,3,,1,1201,3.41262,-2.7,0,855.732,29.6,
1587,1,SBT2050,2,3,,1,1217,3.408132,-2.6999,0,867.732,29.6,
1587,1,SBT2050,2,3,,1,1233,3.40407,-2.7,0,879.731,29.6,
1587,1,SBT2050,2,3,,1,1249,3.39991,-2.7003,0,891.731,29.6,
1587,1,SBT2050,2,3,,1,1265,3.39559,-2.7002,0,903.731,29.6,
1587,1,SBT2050,2,3,,1,1281,3.3913,-2.7003,0,915.731,29.6,
1587,1,SBT2050,2,3,,1,1297,3.38701,-2.6998,0,927.731,29.6,
1587,1,SBT2050,2,3,,1,1313,3.38312,-2.7003,0,939.73,29.6,
1587,1,SBT2050,2,3,,1,1329,3.37873,-2.7001,0,951.73,29.6,
1587,1,SBT2050,2,3,,1,1345,3.374374,-2.7,0,963.73,29.6,
1587,1,SBT2050,2,3,,1,1361,3.37021,-2.7001,0,975.73,29.6,
1587,1,SBT2050,2,3,,1,1377,3.36576,-2.7,0,987.73,29.6,
1587,1,SBT2050,2,3,,1,1393,3.36173,-2.7,0,999.729,29.7,
1587,1,SBT2050,2,3,,1,1409,3.35739,-2.6997,0,1011.729,29.7,
1587,1,SBT2050,2,3,,1,1425,3.35288,-2.7001,0,1023.729,29.7,
1587,1,SBT2050,2,3,,1,1441,3.34868,-2.6998,0,1035.729,29.7,
1587,1,SBT2050,2,3,,1,1457,3.344639,-2.7001,0,1047.729,29.7,
1587,1,SBT2050,2,3,,1,1473,3.3403,-2.6998,0,1059.728,29.8,
1587,1,SBT2050,2,3,,1,1489,3.3359,-2.6999,0,1071.728,29.8,
1587,1,SBT2050,2,3,,1,1505,3.33149,-2.6998,0,1083.728,29.8,
1587,1,SBT2050,2,3,,1,1521,3.326957,-2.7,0,1095.728,29.8,
1587,1,SBT2050,2,3,,1,1537,3.32241,-2.6994,0,1107.728,29.8,
1587,1,SBT2050,2,3,,1,1553,3.31787,-2.7001,0,1119.727,29.9,
1587,1,SBT2050,2,3,,1,1569,3.31352,-2.7001,0,1131.727,29.8,
1587,1,SBT2050,2,3,,1,1585,3.30911,-2.7002,0,1143.727,29.9,
1587,1,SBT2050,2,3,,1,1601,3.30439,-2.7002,0,1155.727,29.9,
1587,1,SBT2050,2,3,,1,1617,3.299918,-2.6998,0,1167.727,29.9,
1587,1,SBT2050,2,3,,1,1633,3.29537,-2.7001,0,1179.726,30,
1587,1,SBT2050,2,3,,1,1649,3.29052,-2.6997,0,1191.726,30,
1587,1,SBT2050,2,3,,1,1665,3.2858,-2.7,0,1203.726,30,
1587,1,SBT2050,2,3,,1,1681,3.28097,-2.6999,0,1215.726,30,
1587,1,SBT2050,2,3,,1,1697,3.27616,-2.7001,0,1227.726,30.1,
1587,1,SBT2050,2,3,,1,1713,3.27175,-2.6999,0,1239.725,30.1,
1587,1,SBT2050,2,3,,1,1729,3.2665,-2.6998,0,1251.725,30.1,
1587,1,SBT2050,2,3,,1,1745,3.26142,-2.7003,0,1263.725,30.1,
1587,1,SBT2050,2,3,,1,1761,3.25657,-2.6997,0,1275.725,30.2,
1587,1,SBT2050,2,3,,1,1777,3.25137,-2.6999,0,1287.725,30.2,
1587,1,SBT2050,2,3,,1,1793,3.24604,-2.7,0,1299.724,30.2,
1587,1,SBT2050,2,3,,1,1809,3.24078,-2.7,0,1311.724,30.3,
1587,1,SBT2050,2,3,,1,1825,3.23523,-2.6999,0,1323.724,30.3,
1587,1,SBT2050,2,3,,1,1841,3.22997,-2.6999,0,1335.724,30.3,
1587,1,SBT2050,2,3,,1,1857,3.22435,-2.6997,0,1347.724,30.3,
1587,1,SBT2050,2,3,,1,1873,3.2191,-2.6997,0,1359.723,30.4,
1587,1,SBT2050,2,3,,1,1889,3.213455,-2.7001,0,1371.723,30.4,
1587,1,SBT2050,2,3,,1,1905,3.20771,-2.6998,0,1383.723,30.5,
1587,1,SBT2050,2,3,,1,1921,3.20148,-2.6997,0,1395.723,30.5,
1587,1,SBT2050,2,3,,1,1937,3.195526,-2.6996,0,1407.723,30.5,
1587,1,SBT2050,2,3,,1,1953,3.18919,-2.7,0,1419.722,30.6,
1587,1,SBT2050,2,3,,1,1969,3.18296,-2.6997,0,1431.722,30.6,
1587,1,SBT2050,2,3,,1,1985,3.17697,-2.7,0,1443.722,30.6,
1587,1,SBT2050,2,3,,1,2001,3.17047,-2.7,0,1455.722,30.7,
1587,1,SBT2050,2,3,,1,2017,3.16372,-2.6997,0,1467.721,30.7,
1587,1,SBT2050,2,3,,1,2033,3.15706,-2.6997,0,1479.721,30.7,
1587,1,SBT2050,2,3,,1,2049,3.14975,-2.7005,0,1491.721,30.8,
1587,1,SBT2050,2,3,,1,2065,3.143133,-2.6997,0,1503.721,30.8,
1587,1,SBT2050,2,3,,1,2081,3.13571,-2.7,0,1515.721,30.9,
1587,1,SBT2050,2,3,,1,2097,3.12852,-2.6999,0,1527.72,31,
1587,1,SBT2050,2,3,,1,2113,3.12079,-2.7003,0,1539.72,31,
1587,1,SBT2050,2,3,,1,2129,3.11308,-2.7,0,1551.72,31,
1587,1,SBT2050,2,3,,1,2145,3.10504,-2.7001,0,1563.72,31.1,
1587,1,SBT2050,2,3,,1,2161,3.09656,-2.7003,0,1575.719,31.2,
1587,1,SBT2050,2,3,,1,2177,3.08811,-2.7,0,1587.719,31.2,
1587,1,SBT2050,2,3,,1,2193,3.07881,-2.7004,0,1599.719,31.3,
1587,1,SBT2050,2,3,,1,2209,3.070194,-2.7,0,1611.719,31.3,
1587,1,SBT2050,2,3,,1,2225,3.0607,-2.6998,0,1623.719,31.4,
1587,1,SBT2050,2,3,,1,2241,3.05137,-2.7001,0,1635.718,31.5,
1587,1,SBT2050,2,3,,1,2257,3.04154,-2.6998,0,1647.718,31.5,
1587,1,SBT2050,2,3,,1,2273,3.03117,-2.7001,0,1659.718,31.6,
1587,1,SBT2050,2,3,,1,2289,3.02086,-2.7003,0,1671.718,31.7,
1587,1,SBT2050,2,3,,1,2305,3.00999,-2.7,0,1683.717,31.7,
1587,1,SBT2050,2,3,,1,2321,2.99875,-2.7001,0,1695.717,31.8,
1587,1,SBT2050,2,3,,1,2337,2.987094,-2.6998,0,1707.717,31.9,
1587,1,SBT2050,2,3,,1,2353,2.97465,-2.7,0,1719.717,32,
1587,1,SBT2050,2,3,,1,2369,2.96186,-2.6996,0,1731.716,32.1,
1587,1,SBT2050,2,3,,1,2385,2.948281,-2.7002,0,1743.716,32.2,
1587,1,SBT2050,2,3,,1,2401,2.93387,-2.6999,0,1755.716,32.3,
1587,1,SBT2050,2,3,,1,2417,2.91878,-2.6997,0,1767.715,32.4,
1587,1,SBT2050,2,3,,1,2433,2.90209,-2.6998,0,1779.715,32.4,
1587,1,SBT2050,2,3,,1,2449,2.88477,-2.7,0,1791.715,32.5,
1587,1,SBT2050,2,3,,1,2465,2.86568,-2.7,0,1803.715,32.7,
1587,1,SBT2050,2,3,,1,2481,2.84464,-2.6997,0,1815.715,32.8,
1587,1,SBT2050,2,3,,1,2497,2.82111,-2.6998,0,1827.714,32.9,
1587,1,SBT2050,2,3,,1,2513,2.79519,-2.6998,0,1839.714,33.1,
1587,1,SBT2050,2,3,,1,2529,2.76624,-2.7001,0,1851.714,33.3,
1587,1,SBT2050,2,3,,1,2545,2.7332,-2.6998,0,1863.714,33.4,
1587,1,SBT2050,2,3,,1,2561,2.69597,-2.6996,0,1875.713,33.6,
1587,1,SBT2050,2,3,,1,2577,2.65237,-2.6999,0,1887.713,33.8,
1587,1,SBT2050,2,3,,1,2593,2.60101,-2.7001,0,1899.713,34,
1587,1,SBT2050,2,3,,1,2609,2.53949,-2.7001,0,1911.713,34.2,
1587,1,SBT2050,2,3,,2,2624,3.049374,0,0,1918.35,34.5,
1587,1,SBT2050,2,3,,2,2640,3.17944,0,0,1918.35,34.2,
1587,1,SBT2050,2,3,,2,2656,3.22343,0,0,1918.35,33.8,
1587,1,SBT2050,2,3,,2,2672,3.25077,0,0,1918.35,33.3,
1587,1,SBT2050,2,3,,2,2677.849,3.25743,-9.8E-05,0,1918.35,,