Folder: OR-RG_ExpRes/ORRG

File: Test1461.csv
Request Year:,2018,,,,,,,,,,,,
Test:,1461,,,,,,,,,,,,
Test Description:,,,,,,,,,,,,,
TestRegime Name:,Aging_Performance,,,,,,,,,,,,
TestRegime Suffix:,SHP_LC,,,,,,,,,,,,
TestRegime CellSize:,18650,,,,,,,,,,,,
TestRegime Version:,1,,,,,,,,,,,,
Number Of Cells:,1,,,,,,,,,,,,
LotID:,,,,,,,,,,,,,
Lot Description:,,,,,,,,,,,,,
Date Made:,1/21/2003 12:00 AM,,,,,,,,,,,,
Origin:,Other,,,,,,,,,,,,
Requestor:,Admin,,,,,,,,,,,,
Product ID:,Default product,,,,,,,,,,,,
Storage Temp:,R.T./AMB,,,,,,,,,,,,
Storage Delay:,0 days,,,,,,,,,,,,
Test Temp:,R.T./AMB,,,,,,,,,,,,
Start Time:,4/5/2018 8:54 AM,,,,,,,,,,,,
End Time:,4/5/2018 3:11 PM,,,,,,,,,,,,
Operator Instructions:,,,,,,,,,,,,,
Test,Cell,Rack,Shelf,Position,Cell ID,Step,Total Time (Seconds),Voltage (V),Current (A),Charge Capacity (mAh),Discharge Capacity (mAh),TC1 (Â°C),
1461,1,SBT2050,2,3,,0,1,3.32747,0,0,0,24.7,
1461,1,SBT2050,2,3,,0,147,3.3275,0,0,0,24.9,
1461,1,SBT2050,2,3,,0,293,3.32762,0,0,0,25,
1461,1,SBT2050,2,3,,1,439,2.49978,-1.1409,0,67.082,28.3,
1461,1,SBT2050,2,3,,1,585,2.49989,-0.7185,0,103.858,28.8,
1461,1,SBT2050,2,3,,1,731,2.5,-0.4802,0,127.78,28.4,
1461,1,SBT2050,2,3,,1,877,2.49989,-0.32582,0,143.886,27.6,
1461,1,SBT2050,2,3,,1,1023,2.49963,-0.21511,0,154.776,27,
1461,1,SBT2050,2,3,,1,1169,2.49975,-0.1174,0,161.511,26.4,
1461,1,SBT2050,2,3,,1,1315,2.49977,-0.05297,0,164.776,25.9,
1461,1,SBT2050,2,3,,1,1461,2.500045,-0.030481,0,166.379,25.5,
1461,1,SBT2050,2,3,,1,1607,2.49989,-0.023147,0,167.444,25.3,
1461,1,SBT2050,2,3,,1,1753,2.50012,-0.019352,0,168.3,25.2,
1461,1,SBT2050,2,3,,1,1899,2.49995,-0.017049,0,169.034,25.2,
1461,1,SBT2050,2,3,,1,2045,2.50006,-0.015151,0,169.683,25.1,
1461,1,SBT2050,2,3,,1,2191,2.49996,-0.013434,0,170.263,25.1,
1461,1,SBT2050,2,3,,1,2337,2.50015,-0.012105,0,170.784,25,
1461,1,SBT2050,2,3,,1,2483,2.49993,-0.010844,0,171.255,25,
1461,1,SBT2050,2,3,,1,2629,2.49989,-0.010186,0,171.689,25,
1461,1,SBT2050,2,3,,2,2774,3.52841,2.9358,98.998,171.756,25.8,
1461,1,SBT2050,2,3,,2,2920,3.58452,2.9358,218.066,171.756,27.2,
1461,1,SBT2050,2,3,,2,3066,3.61433,2.936,337.135,171.756,28.2,
1461,1,SBT2050,2,3,,2,3212,3.64309,2.936,456.204,171.756,28.7,
1461,1,SBT2050,2,3,,2,3358,3.66601,2.9354,575.273,171.756,28.8,
1461,1,SBT2050,2,3,,2,3504,3.68816,2.9357,694.341,171.756,28.8,
1461,1,SBT2050,2,3,,2,3650,3.71305,2.9358,813.41,171.756,28.8,
1461,1,SBT2050,2,3,,2,3796,3.73755,2.9359,932.479,171.756,28.9,
1461,1,SBT2050,2,3,,2,3942,3.76313,2.936,1051.548,171.756,28.9,
1461,1,SBT2050,2,3,,2,4088,3.78964,2.9359,1170.616,171.756,29,
1461,1,SBT2050,2,3,,2,4234,3.81917,2.936,1289.685,171.756,29,
1461,1,SBT2050,2,3,,2,4380,3.85186,2.9365,1408.754,171.756,29.1,
1461,1,SBT2050,2,3,,2,4526,3.88923,2.9355,1527.823,171.756,29.2,
1461,1,SBT2050,2,3,,2,4672,3.93066,2.9359,1646.891,171.756,29.3,
1461,1,SBT2050,2,3,,2,4818,3.9735,2.9358,1765.96,171.756,29.4,
1461,1,SBT2050,2,3,,2,4964,4.0167,2.9359,1885.029,171.756,29.5,
1461,1,SBT2050,2,3,,2,5110,4.05911,2.9355,2004.098,171.756,29.6,
1461,1,SBT2050,2,3,,2,5256,4.10089,2.9358,2123.167,171.756,29.6,
1461,1,SBT2050,2,3,,2,5402,4.14256,2.936,2242.236,171.756,29.7,
1461,1,SBT2050,2,3,,2,5548,4.150074,2.2935,2349.802,171.756,29.5,
1461,1,SBT2050,2,3,,2,5694,4.15018,1.6937,2430.027,171.756,28.8,
1461,1,SBT2050,2,3,,2,5840,4.150074,1.2684,2489.55,171.756,28,
1461,1,SBT2050,2,3,,2,5986,4.15001,0.9811,2534.784,171.756,27.2,
1461,1,SBT2050,2,3,,2,6132,4.15011,0.7939,2570.542,171.756,26.7,
1461,1,SBT2050,2,3,,2,6278,4.15022,0.6675,2600.043,171.756,26.3,
1461,1,SBT2050,2,3,,2,6424,4.15001,0.5788,2625.224,171.756,26,
1461,1,SBT2050,2,3,,2,6570,4.1499,0.5103,2647.255,171.756,25.8,
1461,1,SBT2050,2,3,,2,6716,4.15015,0.45306,2666.76,171.756,25.6,
1461,1,SBT2050,2,3,,2,6862,4.150074,0.40605,2684.168,171.756,25.5,
1461,1,SBT2050,2,3,,2,7008,4.15004,0.36333,2699.752,171.756,25.3,
1461,1,SBT2050,2,3,,2,7154,4.150086,0.32609,2713.721,171.756,25.3,
1461,1,SBT2050,2,3,,2,7300,4.15021,0.29185,2726.248,171.756,25.2,
1461,1,SBT2050,2,3,,2,7446,4.15026,0.26314,2737.507,171.756,25.2,
1461,1,SBT2050,2,3,,2,7592,4.15021,0.23586,2747.62,171.756,25.2,
1461,1,SBT2050,2,3,,2,7738,4.14991,0.21253,2756.713,171.756,25.1,
1461,1,SBT2050,2,3,,2,7884,4.15019,0.19102,2764.879,171.756,25.1,
1461,1,SBT2050,2,3,,2,8030,4.14993,0.17278,2772.23,171.756,25.1,
1461,1,SBT2050,2,3,,2,8176,4.15017,0.15464,2778.857,171.756,25,
1461,1,SBT2050,2,3,,2,8322,4.150098,0.13941,2784.832,171.756,25.1,
1461,1,SBT2050,2,3,,2,8468,4.150074,0.12583,2790.22,171.756,25.1,
1461,1,SBT2050,2,3,,2,8614,4.15011,0.11405,2795.081,171.756,25.1,
1461,1,SBT2050,2,3,,2,8760,4.14991,0.103,2799.481,171.756,25,
1461,1,SBT2050,2,3,,2,8906,4.14995,0.09282,2803.451,171.756,25,
1461,1,SBT2050,2,3,,2,9052,4.14982,0.08503,2807.05,171.756,25,
1461,1,SBT2050,2,3,,2,9198,4.14997,0.0769,2810.323,171.756,25,
1461,1,SBT2050,2,3,,2,9344,4.14993,0.07001,2813.295,171.756,25,
1461,1,SBT2050,2,3,,2,9490,4.14994,0.06394,2816.004,171.756,25,
1461,1,SBT2050,2,3,,2,9636,4.15004,0.05783,2818.476,171.756,25,
1461,1,SBT2050,2,3,,2,9782,4.15,0.05294,2820.741,171.756,25,
1461,1,SBT2050,2,3,,2,9928,4.14943,0.04818,2822.792,171.756,25,
1461,1,SBT2050,2,3,,2,10074,4.15018,0.044197,2824.675,171.756,25,
1461,1,SBT2050,2,3,,2,10220,4.15034,0.041117,2826.424,171.756,25,
1461,1,SBT2050,2,3,,2,10366,4.14999,0.037521,2828.028,171.756,25,
1461,1,SBT2050,2,3,,2,10512,4.14994,0.035717,2829.505,171.756,25,
1461,1,SBT2050,2,3,,2,10658,4.15003,0.032081,2830.854,171.756,25,
1461,1,SBT2050,2,3,,2,10804,4.15016,0.029412,2832.084,171.756,24.9,
1461,1,SBT2050,2,3,,2,10950,4.14999,0.027669,2833.237,171.756,25,
1461,1,SBT2050,2,3,,2,11096,4.150098,0.025908,2834.314,171.756,25,
1461,1,SBT2050,2,3,,2,11242,4.15001,0.024141,2835.323,171.756,25,
1461,1,SBT2050,2,3,,2,11388,4.14992,0.021311,2836.251,171.756,25,
1461,1,SBT2050,2,3,,2,11534,4.15013,0.021058,2837.115,171.756,25,
1461,1,SBT2050,2,3,,2,11680,4.15017,0.019364,2837.919,171.756,25,
1461,1,SBT2050,2,3,,2,11826,4.150074,0.017936,2838.681,171.756,25,
1461,1,SBT2050,2,3,,2,11972,4.15023,0.017273,2839.408,171.756,25,
1461,1,SBT2050,2,3,,2,12118,4.14997,0.016701,2840.102,171.756,25,
1461,1,SBT2050,2,3,,2,12264,4.15015,0.015465,2840.742,171.756,25,
1461,1,SBT2050,2,3,,2,12410,4.15005,0.013792,2841.338,171.756,25,
1461,1,SBT2050,2,3,,2,12556,4.14985,0.013581,2841.887,171.756,25,
1461,1,SBT2050,2,3,,2,12702,4.15,0.012895,2842.419,171.756,25,
1461,1,SBT2050,2,3,,2,12848,4.14981,0.012693,2842.932,171.756,24.9,
1461,1,SBT2050,2,3,,2,12994,4.1499,0.011481,2843.393,171.756,25,
1461,1,SBT2050,2,3,,3,13139,4.148986,0,2843.832,171.756,25,
1461,1,SBT2050,2,3,,3,13285,4.14807,0,2843.832,171.756,24.9,
1461,1,SBT2050,2,3,,3,13431,4.14779,0,2843.832,171.756,25,
1461,1,SBT2050,2,3,,3,13577,4.1475,0,2843.832,171.756,24.9,
1461,1,SBT2050,2,3,,3,13723,4.14767,0,2843.832,171.756,25,
1461,1,SBT2050,2,3,,3,13869,4.14731,0,2843.832,171.756,25,
1461,1,SBT2050,2,3,,3,14015,4.14733,0,2843.832,171.756,25,
1461,1,SBT2050,2,3,,3,14161,4.14688,0,2843.832,171.756,25,
1461,1,SBT2050,2,3,,3,14307,4.14685,0,2843.832,171.756,25,
1461,1,SBT2050,2,3,,3,14453,4.146404,0,2843.832,171.756,24.9,
1461,1,SBT2050,2,3,,3,14599,4.14653,0,2843.832,171.756,24.9,
1461,1,SBT2050,2,3,,3,14745,4.14667,0,2843.832,171.756,25,
1461,1,SBT2050,2,3,,3,14891,4.14641,0,2843.832,171.756,24.9,
1461,1,SBT2050,2,3,,4,15036,3.90657,-2.9364,2843.832,254.106,25.9,
1461,1,SBT2050,2,3,,4,15182,3.87913,-2.936,2843.832,373.176,27,
1461,1,SBT2050,2,3,,4,15328,3.84532,-2.9356,2843.832,492.245,27.6,
1461,1,SBT2050,2,3,,4,15474,3.80521,-2.9357,2843.832,611.314,27.8,
1461,1,SBT2050,2,3,,4,15620,3.76511,-2.936,2843.832,730.383,27.9,
1461,1,SBT2050,2,3,,4,15766,3.72794,-2.9356,2843.832,849.452,27.9,
1461,1,SBT2050,2,3,,4,15912,3.69089,-2.9359,2843.832,968.521,28,
1461,1,SBT2050,2,3,,4,16058,3.652954,-2.936,2843.832,1087.59,28,
1461,1,SBT2050,2,3,,4,16204,3.61173,-2.9359,2843.832,1206.659,28.1,
1461,1,SBT2050,2,3,,4,16350,3.569666,-2.9365,2843.832,1325.728,28.1,
1461,1,SBT2050,2,3,,4,16496,3.52899,-2.936,2843.832,1444.797,28.2,
1461,1,SBT2050,2,3,,4,16642,3.49057,-2.9358,2843.832,1563.866,28.3,
1461,1,SBT2050,2,3,,4,16788,3.45611,-2.9363,2843.832,1682.935,28.4,
1461,1,SBT2050,2,3,,4,16934,3.42457,-2.9357,2843.832,1802.003,28.5,
1461,1,SBT2050,2,3,,4,17080,3.39449,-2.9361,2843.832,1921.072,28.6,
1461,1,SBT2050,2,3,,4,17226,3.364124,-2.9361,2843.832,2040.142,28.7,
1461,1,SBT2050,2,3,,4,17372,3.32992,-2.936,2843.832,2159.211,28.8,
1461,1,SBT2050,2,3,,4,17518,3.28858,-2.9359,2843.832,2278.28,29,
1461,1,SBT2050,2,3,,4,17664,3.2361,-2.9359,2843.832,2397.349,29.3,
1461,1,SBT2050,2,3,,4,17810,3.16215,-2.9364,2843.832,2516.418,29.6,
1461,1,SBT2050,2,3,,4,17956,3.04414,-2.9356,2843.832,2635.487,30.3,
1461,1,SBT2050,2,3,,4,18102,2.82058,-2.9357,2843.832,2754.557,31.7,
1461,1,SBT2050,2,3,,4,18248,2.499889,-2.2891,2843.832,2869.111,34.5,
1461,1,SBT2050,2,3,,4,18394,2.49963,-1.1722,2843.832,2937.194,34.3,
1461,1,SBT2050,2,3,,4,18540,2.499734,-0.5887,2843.832,2971.374,32,
1461,1,SBT2050,2,3,,4,18686,2.49985,-0.31506,2843.832,2989.025,29.8,
1461,1,SBT2050,2,3,,4,18832,2.499555,-0.16626,2843.832,2998.577,28.1,
1461,1,SBT2050,2,3,,4,18978,2.49978,-0.0674,2843.832,3003.074,26.9,
1461,1,SBT2050,2,3,,4,19124,2.49991,-0.032501,2843.832,3004.952,26.2,
1461,1,SBT2050,2,3,,4,19270,2.49996,-0.023657,2843.832,3006.058,25.7,
1461,1,SBT2050,2,3,,4,19416,2.49998,-0.020181,2843.832,3006.942,25.4,
1461,1,SBT2050,2,3,,4,19562,2.499889,-0.017901,2843.832,3007.711,25.3,
1461,1,SBT2050,2,3,,4,19708,2.50002,-0.016275,2843.832,3008.402,25.2,
1461,1,SBT2050,2,3,,4,19854,2.49998,-0.014769,2843.832,3009.031,25.1,
1461,1,SBT2050,2,3,,4,20000,2.49998,-0.013623,2843.832,3009.609,25.1,
1461,1,SBT2050,2,3,,4,20146,2.500187,-0.012629,2843.832,3010.141,25.1,
1461,1,SBT2050,2,3,,4,20292,2.49995,-0.011941,2843.832,3010.639,25,
1461,1,SBT2050,2,3,,4,20438,2.500056,-0.011406,2843.832,3011.111,25,
1461,1,SBT2050,2,3,,4,20584,2.50002,-0.010942,2843.832,3011.561,25,
1461,1,SBT2050,2,3,,4,20730,2.50001,-0.010424,2843.832,3011.993,25,
1461,1,SBT2050,2,3,,5,20875,2.54392,0,2843.832,3012.239,25,
1461,1,SBT2050,2,3,,5,21021,2.60919,0,2843.832,3012.239,25,
1461,1,SBT2050,2,3,,5,21167,2.65288,0,2843.832,3012.239,25,
1461,1,SBT2050,2,3,,5,21313,2.68386,0,2843.832,3012.239,25,
1461,1,SBT2050,2,3,,5,21459,2.70641,0,2843.832,3012.239,24.9,
1461,1,SBT2050,2,3,,5,21605,2.72467,0,2843.832,3012.239,24.9,
1461,1,SBT2050,2,3,,5,21751,2.73883,0,2843.832,3012.239,24.9,
1461,1,SBT2050,2,3,,5,21897,2.75027,0,2843.832,3012.239,25,
1461,1,SBT2050,2,3,,5,22043,2.7595,0,2843.832,3012.239,25,
1461,1,SBT2050,2,3,,5,22189,2.767505,0,2843.832,3012.239,25,
1461,1,SBT2050,2,3,,5,22335,2.77426,0,2843.832,3012.239,25,
1461,1,SBT2050,2,3,,5,22481,2.78004,0,2843.832,3012.239,25,
1461,1,SBT2050,2,3,,5,22616.033,2.78475,-0.0001,2843.832,3012.239,,

File: Test1469.csv
Request Year:,2018,,,,,,,,,,,,
Test:,1469,,,,,,,,,,,,
Test Description:,,,,,,,,,,,,,
TestRegime Name:,Aging_Performance,,,,,,,,,,,,
TestRegime Suffix:,SHP_LC,,,,,,,,,,,,
TestRegime CellSize:,18650,,,,,,,,,,,,
TestRegime Version:,1,,,,,,,,,,,,
Number Of Cells:,1,,,,,,,,,,,,
LotID:,,,,,,,,,,,,,
Lot Description:,,,,,,,,,,,,,
Date Made:,1/21/2003 12:00 AM,,,,,,,,,,,,
Origin:,Other,,,,,,,,,,,,
Requestor:,Admin,,,,,,,,,,,,
Product ID:,Default product,,,,,,,,,,,,
Storage Temp:,R.T./AMB,,,,,,,,,,,,
Storage Delay:,0 days,,,,,,,,,,,,
Test Temp:,R.T./AMB,,,,,,,,,,,,
Start Time:,4/7/2018 6:06 PM,,,,,,,,,,,,
End Time:,4/8/2018 12:51 AM,,,,,,,,,,,,
Operator Instructions:,,,,,,,,,,,,,
Test,Cell,Rack,Shelf,Position,Cell ID,Step,Total Time (Seconds),Voltage (V),Current (A),Charge Capacity (mAh),Discharge Capacity (mAh),TC1 (Â°C),
1469,1,SBT2050,2,3,,0,1,3.328833,0,0,0,24.9,
1469,1,SBT2050,2,3,,0,159,3.32917,0,0,0,25.1,
1469,1,SBT2050,2,3,,1,317,2.51049,-2.9361,0,13.863,25.4,
1469,1,SBT2050,2,3,,1,475,2.499911,-0.9857,0,73.201,28.6,
1469,1,SBT2050,2,3,,1,633,2.4999,-0.6449,0,108.156,28.9,
1469,1,SBT2050,2,3,,1,791,2.4999,-0.44764,0,131.803,28.5,
1469,1,SBT2050,2,3,,1,949,2.4999,-0.32755,0,148.593,27.8,
1469,1,SBT2050,2,3,,1,1107,2.500066,-0.24857,0,161.132,27.2,
1469,1,SBT2050,2,3,,1,1265,2.49974,-0.19235,0,170.754,26.8,
1469,1,SBT2050,2,3,,1,1423,2.499768,-0.14574,0,178.164,26.4,
1469,1,SBT2050,2,3,,1,1581,2.4998,-0.10258,0,183.602,26.1,
1469,1,SBT2050,2,3,,1,1739,2.49984,-0.06378,0,187.238,25.8,
1469,1,SBT2050,2,3,,1,1897,2.50004,-0.035762,0,189.36,25.6,
1469,1,SBT2050,2,3,,1,2055,2.4999,-0.022958,0,190.604,25.5,
1469,1,SBT2050,2,3,,1,2213,2.500078,-0.017895,0,191.489,25.4,
1469,1,SBT2050,2,3,,1,2371,2.49995,-0.015615,0,192.222,25.4,
1469,1,SBT2050,2,3,,1,2529,2.500078,-0.014169,0,192.872,25.3,
1469,1,SBT2050,2,3,,1,2687,2.50003,-0.013042,0,193.467,25.3,
1469,1,SBT2050,2,3,,1,2845,2.499935,-0.012163,0,194.019,25.3,
1469,1,SBT2050,2,3,,1,3003,2.49996,-0.011255,0,194.534,25.3,
1469,1,SBT2050,2,3,,1,3161,2.49983,-0.010446,0,195.014,25.3,
1469,1,SBT2050,2,3,,2,3318,3.338935,2.9361,33.27,195.349,25.4,
1469,1,SBT2050,2,3,,2,3476,3.588354,2.9357,162.126,195.349,26.9,
1469,1,SBT2050,2,3,,2,3634,3.6197,2.9359,290.982,195.349,28.4,
1469,1,SBT2050,2,3,,2,3792,3.65012,2.9359,419.838,195.349,29.1,
1469,1,SBT2050,2,3,,2,3950,3.67382,2.9359,548.694,195.349,29.3,
1469,1,SBT2050,2,3,,2,4108,3.6968,2.9359,677.55,195.349,29.3,
1469,1,SBT2050,2,3,,2,4266,3.72346,2.9362,806.405,195.349,29.3,
1469,1,SBT2050,2,3,,2,4424,3.7505,2.9359,935.261,195.349,29.3,
1469,1,SBT2050,2,3,,2,4582,3.778316,2.9357,1064.117,195.349,29.3,
1469,1,SBT2050,2,3,,2,4740,3.80873,2.9362,1192.973,195.349,29.4,
1469,1,SBT2050,2,3,,2,4898,3.842544,2.9359,1321.828,195.349,29.4,
1469,1,SBT2050,2,3,,2,5056,3.88163,2.9361,1450.684,195.349,29.6,
1469,1,SBT2050,2,3,,2,5214,3.92566,2.9358,1579.539,195.349,29.7,
1469,1,SBT2050,2,3,,2,5372,3.97143,2.936,1708.395,195.349,29.8,
1469,1,SBT2050,2,3,,2,5530,4.018276,2.9359,1837.251,195.349,29.9,
1469,1,SBT2050,2,3,,2,5688,4.06451,2.9361,1966.107,195.349,30,
1469,1,SBT2050,2,3,,2,5846,4.1108,2.9364,2094.962,195.349,30.1,
1469,1,SBT2050,2,3,,2,6004,4.15012,2.7871,2223.322,195.349,30.2,
1469,1,SBT2050,2,3,,2,6162,4.15011,2.067,2329.069,195.349,29.7,
1469,1,SBT2050,2,3,,2,6320,4.15016,1.5402,2407.592,195.349,28.8,
1469,1,SBT2050,2,3,,2,6478,4.1501,1.1654,2466.443,195.349,28,
1469,1,SBT2050,2,3,,2,6636,4.14998,0.9164,2511.772,195.349,27.3,
1469,1,SBT2050,2,3,,2,6794,4.15009,0.7441,2547.974,195.349,26.8,
1469,1,SBT2050,2,3,,2,6952,4.15016,0.6224,2577.821,195.349,26.4,
1469,1,SBT2050,2,3,,2,7110,4.150208,0.5338,2603.08,195.349,26.1,
1469,1,SBT2050,2,3,,2,7268,4.149874,0.4651,2624.927,195.349,25.9,
1469,1,SBT2050,2,3,,2,7426,4.149838,0.41152,2644.126,195.349,25.8,
1469,1,SBT2050,2,3,,2,7584,4.149886,0.36739,2661.191,195.349,25.7,
1469,1,SBT2050,2,3,,2,7742,4.15015,0.33008,2676.462,195.349,25.6,
1469,1,SBT2050,2,3,,2,7900,4.15001,0.29735,2690.198,195.349,25.5,
1469,1,SBT2050,2,3,,2,8058,4.15008,0.26736,2702.553,195.349,25.5,
1469,1,SBT2050,2,3,,2,8216,4.14998,0.24225,2713.723,195.349,25.4,
1469,1,SBT2050,2,3,,2,8374,4.150196,0.21787,2723.81,195.349,25.4,
1469,1,SBT2050,2,3,,2,8532,4.15003,0.19826,2732.942,195.349,25.3,
1469,1,SBT2050,2,3,,2,8690,4.14999,0.17919,2741.227,195.349,25.3,
1469,1,SBT2050,2,3,,2,8848,4.14993,0.16296,2748.725,195.349,25.3,
1469,1,SBT2050,2,3,,2,9006,4.14985,0.14793,2755.543,195.349,25.3,
1469,1,SBT2050,2,3,,2,9164,4.14991,0.13489,2761.74,195.349,25.3,
1469,1,SBT2050,2,3,,2,9322,4.15003,0.12274,2767.404,195.349,25.3,
1469,1,SBT2050,2,3,,2,9480,4.14997,0.11202,2772.557,195.349,25.3,
1469,1,SBT2050,2,3,,2,9638,4.14996,0.10193,2777.249,195.349,25.3,
1469,1,SBT2050,2,3,,2,9796,4.14975,0.09321,2781.526,195.349,25.3,
1469,1,SBT2050,2,3,,2,9954,4.14997,0.08546,2785.444,195.349,25.3,
1469,1,SBT2050,2,3,,2,10112,4.149838,0.0776,2789.016,195.349,25.3,
1469,1,SBT2050,2,3,,2,10270,4.1501,0.0718,2792.296,195.349,25.3,
1469,1,SBT2050,2,3,,2,10428,4.14981,0.06589,2795.317,195.349,25.2,
1469,1,SBT2050,2,3,,2,10586,4.1501,0.06062,2798.087,195.349,25.3,
1469,1,SBT2050,2,3,,2,10744,4.14999,0.05618,2800.645,195.349,25.2,
1469,1,SBT2050,2,3,,2,10902,4.149862,0.05178,2802.998,195.349,25.2,
1469,1,SBT2050,2,3,,2,11060,4.1498,0.0485,2805.183,195.349,25.2,
1469,1,SBT2050,2,3,,2,11218,4.1501,0.04416,2807.2,195.349,25.2,
1469,1,SBT2050,2,3,,2,11376,4.149838,0.041753,2809.058,195.349,25.2,
1469,1,SBT2050,2,3,,2,11534,4.150184,0.037374,2810.797,195.349,25.2,
1469,1,SBT2050,2,3,,2,11692,4.15005,0.0354,2812.401,195.349,25.3,
1469,1,SBT2050,2,3,,2,11850,4.14995,0.032559,2813.881,195.349,25.2,
1469,1,SBT2050,2,3,,2,12008,4.14993,0.030862,2815.26,195.349,25.2,
1469,1,SBT2050,2,3,,2,12166,4.14992,0.028257,2816.566,195.349,25.2,
1469,1,SBT2050,2,3,,2,12324,4.15011,0.026459,2817.783,195.349,25.2,
1469,1,SBT2050,2,3,,2,12482,4.14991,0.024989,2818.928,195.349,25.2,
1469,1,SBT2050,2,3,,2,12640,4.14991,0.02348,2819.996,195.349,25.2,
1469,1,SBT2050,2,3,,2,12798,4.14981,0.021826,2820.98,195.349,25.2,
1469,1,SBT2050,2,3,,2,12956,4.14998,0.021038,2821.919,195.349,25.2,
1469,1,SBT2050,2,3,,2,13114,4.14985,0.019909,2822.794,195.349,25.2,
1469,1,SBT2050,2,3,,2,13272,4.15006,0.018399,2823.617,195.349,25.2,
1469,1,SBT2050,2,3,,2,13430,4.14998,0.016628,2824.382,195.349,25.2,
1469,1,SBT2050,2,3,,2,13588,4.150196,0.015981,2825.12,195.349,25.2,
1469,1,SBT2050,2,3,,2,13746,4.14998,0.014586,2825.806,195.349,25.2,
1469,1,SBT2050,2,3,,2,13904,4.14998,0.014047,2826.442,195.349,25.2,
1469,1,SBT2050,2,3,,2,14062,4.15016,0.013525,2827.059,195.349,25.2,
1469,1,SBT2050,2,3,,2,14220,4.14983,0.012757,2827.638,195.349,25.2,
1469,1,SBT2050,2,3,,2,14378,4.15016,0.01243,2828.188,195.349,25.2,
1469,1,SBT2050,2,3,,2,14536,4.15009,0.011122,2828.701,195.349,25.2,
1469,1,SBT2050,2,3,,2,14694,4.15002,0.011332,2829.203,195.349,25.2,
1469,1,SBT2050,2,3,,3,14851,4.1488,0,2829.329,195.349,25.2,
1469,1,SBT2050,2,3,,3,15009,4.14844,0,2829.329,195.349,25.2,
1469,1,SBT2050,2,3,,3,15167,4.147966,0,2829.329,195.349,25.2,
1469,1,SBT2050,2,3,,3,15325,4.1479,0,2829.329,195.349,25.2,
1469,1,SBT2050,2,3,,3,15483,4.14744,0,2829.329,195.349,25.2,
1469,1,SBT2050,2,3,,3,15641,4.14728,0,2829.329,195.349,25.2,
1469,1,SBT2050,2,3,,3,15799,4.14707,0,2829.329,195.349,25.2,
1469,1,SBT2050,2,3,,3,15957,4.14669,0,2829.329,195.349,25.2,
1469,1,SBT2050,2,3,,3,16115,4.14708,0,2829.329,195.349,25.2,
1469,1,SBT2050,2,3,,3,16273,4.14677,0,2829.329,195.349,25.2,
1469,1,SBT2050,2,3,,3,16431,4.14711,0,2829.329,195.349,25.2,
1469,1,SBT2050,2,3,,4,16588,3.8876,-2.9363,2829.329,238.465,25.7,
1469,1,SBT2050,2,3,,4,16746,3.85282,-2.9361,2829.329,367.321,27.3,
1469,1,SBT2050,2,3,,4,16904,3.8257,-2.9361,2829.329,496.177,28.1,
1469,1,SBT2050,2,3,,4,17062,3.78873,-2.9354,2829.329,625.032,28.4,
1469,1,SBT2050,2,3,,4,17220,3.74816,-2.9359,2829.329,753.888,28.5,
1469,1,SBT2050,2,3,,4,17378,3.70855,-2.9359,2829.329,882.743,28.4,
1469,1,SBT2050,2,3,,4,17536,3.66829,-2.936,2829.329,1011.599,28.4,
1469,1,SBT2050,2,3,,4,17694,3.62558,-2.9359,2829.329,1140.454,28.5,
1469,1,SBT2050,2,3,,4,17852,3.58015,-2.9359,2829.329,1269.31,28.6,
1469,1,SBT2050,2,3,,4,18010,3.53469,-2.9358,2829.329,1398.165,28.6,
1469,1,SBT2050,2,3,,4,18168,3.491516,-2.9359,2829.329,1527.02,28.7,
1469,1,SBT2050,2,3,,4,18326,3.45224,-2.9358,2829.329,1655.876,28.8,
1469,1,SBT2050,2,3,,4,18484,3.41616,-2.9361,2829.329,1784.731,28.9,
1469,1,SBT2050,2,3,,4,18642,3.38125,-2.9357,2829.329,1913.586,29,
1469,1,SBT2050,2,3,,4,18800,3.34503,-2.9356,2829.329,2042.441,29.2,
1469,1,SBT2050,2,3,,4,18958,3.30334,-2.9361,2829.329,2171.297,29.3,
1469,1,SBT2050,2,3,,4,19116,3.25121,-2.9361,2829.329,2300.152,29.6,
1469,1,SBT2050,2,3,,4,19274,3.18096,-2.9358,2829.329,2429.007,30,
1469,1,SBT2050,2,3,,4,19432,3.07598,-2.9355,2829.329,2557.862,30.6,
1469,1,SBT2050,2,3,,4,19590,2.899003,-2.9354,2829.329,2686.718,31.9,
1469,1,SBT2050,2,3,,4,19748,2.5174,-2.9366,2829.329,2815.573,34.2,
1469,1,SBT2050,2,3,,4,19906,2.49978,-1.472,2829.329,2907.189,35.3,
1469,1,SBT2050,2,3,,4,20064,2.499728,-0.7687,2829.329,2954.479,33.3,
1469,1,SBT2050,2,3,,4,20222,2.49991,-0.43506,2829.329,2980.027,30.9,
1469,1,SBT2050,2,3,,4,20380,2.49981,-0.27022,2829.329,2995.12,29,
1469,1,SBT2050,2,3,,4,20538,2.49976,-0.17205,2829.329,3004.685,27.7,
1469,1,SBT2050,2,3,,4,20696,2.4998,-0.1046,2829.329,3010.664,26.8,
1469,1,SBT2050,2,3,,4,20854,2.5,-0.05583,2829.329,3014.114,26.2,
1469,1,SBT2050,2,3,,4,21012,2.49997,-0.030312,2829.329,3015.913,25.9,
1469,1,SBT2050,2,3,,4,21170,2.50017,-0.021633,2829.329,3017.017,25.6,
1469,1,SBT2050,2,3,,4,21328,2.50007,-0.017929,2829.329,3017.872,25.5,
1469,1,SBT2050,2,3,,4,21486,2.500193,-0.01613,2829.329,3018.613,25.4,
1469,1,SBT2050,2,3,,4,21644,2.49991,-0.014598,2829.329,3019.284,25.4,
1469,1,SBT2050,2,3,,4,21802,2.49999,-0.013643,2829.329,3019.904,25.3,
1469,1,SBT2050,2,3,,4,21960,2.49989,-0.012688,2829.329,3020.481,25.3,
1469,1,SBT2050,2,3,,4,22118,2.49997,-0.011999,2829.329,3021.02,25.3,
1469,1,SBT2050,2,3,,4,22276,2.5,-0.011264,2829.329,3021.527,25.3,
1469,1,SBT2050,2,3,,4,22434,2.49981,-0.010544,2829.329,3022.004,25.3,
1469,1,SBT2050,2,3,,5,22591,2.546098,0,2829.329,3022.265,25.3,
1469,1,SBT2050,2,3,,5,22749,2.61386,0,2829.329,3022.265,25.2,
1469,1,SBT2050,2,3,,5,22907,2.660086,0,2829.329,3022.265,25.2,
1469,1,SBT2050,2,3,,5,23065,2.69315,0,2829.329,3022.265,25.2,
1469,1,SBT2050,2,3,,5,23223,2.71768,0,2829.329,3022.265,25.2,
1469,1,SBT2050,2,3,,5,23381,2.737226,0,2829.329,3022.265,25.2,
1469,1,SBT2050,2,3,,5,23539,2.75263,0,2829.329,3022.265,25.2,
1469,1,SBT2050,2,3,,5,23697,2.76533,0,2829.329,3022.265,25.2,
1469,1,SBT2050,2,3,,5,23855,2.77574,0,2829.329,3022.265,25.2,
1469,1,SBT2050,2,3,,5,24013,2.78432,0,2829.329,3022.265,25.2,
1469,1,SBT2050,2,3,,5,24171,2.79199,0,2829.329,3022.265,25.2,
1469,1,SBT2050,2,3,,5,24324.21,2.79846,-0.0001,2829.329,3022.265,,