Folder: OR-RG_ExpRes/ORRG (part 4)

File: Test1534.csv
Request Year:,2018,,,,,,,,,,,,
Test:,1534,,,,,,,,,,,,
Test Description:,,,,,,,,,,,,,
TestRegime Name:,Dchg_1C,,,,,,,,,,,,
TestRegime Suffix:,SHP_LC,,,,,,,,,,,,
TestRegime CellSize:,18650,,,,,,,,,,,,
TestRegime Version:,1,,,,,,,,,,,,
Number Of Cells:,1,,,,,,,,,,,,
LotID:,,,,,,,,,,,,,
Lot Description:,,,,,,,,,,,,,
Date Made:,1/21/2003 12:00 AM,,,,,,,,,,,,
Origin:,Other,,,,,,,,,,,,
Requestor:,Admin,,,,,,,,,,,,
Product ID:,Default product,,,,,,,,,,,,
Storage Temp:,R.T./AMB,,,,,,,,,,,,
Storage Delay:,0 days,,,,,,,,,,,,
Test Temp:,R.T./AMB,,,,,,,,,,,,
Start Time:,4/21/2018 9:39 AM,,,,,,,,,,,,
End Time:,4/21/2018 10:36 AM,,,,,,,,,,,,
Operator Instructions:,,,,,,,,,,,,,
Test,Cell,Rack,Shelf,Position,Cell ID,Step,Total Time (Seconds),Voltage (V),Current (A),Charge Capacity (mAh),Discharge Capacity (mAh),TC1 (Â°C),
1534,1,SBT2050,2,3,,0,1,4.13932,0,0,0,25.2,
1534,1,SBT2050,2,3,,0,21,4.13957,0,0,0,25.1,
1534,1,SBT2050,2,3,,0,41,4.13927,0,0,0,25.1,
1534,1,SBT2050,2,3,,1,61,3.89635,-2.6998,0,0.749,25.1,
1534,1,SBT2050,2,3,,1,81,3.8448,-2.6999,0,15.748,25.2,
1534,1,SBT2050,2,3,,1,101,3.821416,-2.6999,0,30.748,25.5,
1534,1,SBT2050,2,3,,1,121,3.80645,-2.6997,0,45.748,25.7,
1534,1,SBT2050,2,3,,1,141,3.7964,-2.7003,0,60.748,26,
1534,1,SBT2050,2,3,,1,161,3.789134,-2.6995,0,75.747,26.2,
1534,1,SBT2050,2,3,,1,181,3.7835,-2.6997,0,90.747,26.5,
1534,1,SBT2050,2,3,,1,201,3.7788,-2.6998,0,105.747,26.7,
1534,1,SBT2050,2,3,,1,221,3.77509,-2.7001,0,120.747,26.9,
1534,1,SBT2050,2,3,,1,241,3.77204,-2.7002,0,135.746,27.1,
1534,1,SBT2050,2,3,,1,261,3.76913,-2.7001,0,150.746,27.3,
1534,1,SBT2050,2,3,,1,281,3.76632,-2.7,0,165.746,27.4,
1534,1,SBT2050,2,3,,1,301,3.76363,-2.7001,0,180.746,27.5,
1534,1,SBT2050,2,3,,1,321,3.76115,-2.7,0,195.745,27.7,
1534,1,SBT2050,2,3,,1,341,3.75868,-2.7003,0,210.745,27.8,
1534,1,SBT2050,2,3,,1,361,3.75623,-2.6997,0,225.745,27.9,
1534,1,SBT2050,2,3,,1,381,3.75332,-2.7002,0,240.745,27.9,
1534,1,SBT2050,2,3,,1,401,3.75082,-2.6997,0,255.744,28,
1534,1,SBT2050,2,3,,1,421,3.74786,-2.7,0,270.744,28.1,
1534,1,SBT2050,2,3,,1,441,3.74503,-2.6997,0,285.744,28.2,
1534,1,SBT2050,2,3,,1,461,3.74242,-2.6997,0,300.744,28.3,
1534,1,SBT2050,2,3,,1,481,3.739404,-2.7,0,315.743,28.3,
1534,1,SBT2050,2,3,,1,501,3.73624,-2.6998,0,330.743,28.4,
1534,1,SBT2050,2,3,,1,521,3.73276,-2.6997,0,345.743,28.4,
1534,1,SBT2050,2,3,,1,541,3.72955,-2.6999,0,360.742,28.5,
1534,1,SBT2050,2,3,,1,561,3.726234,-2.7,0,375.742,28.5,
1534,1,SBT2050,2,3,,1,581,3.722634,-2.6997,0,390.742,28.5,
1534,1,SBT2050,2,3,,1,601,3.71869,-2.6999,0,405.742,28.5,
1534,1,SBT2050,2,3,,1,621,3.71488,-2.6997,0,420.741,28.5,
1534,1,SBT2050,2,3,,1,641,3.71117,-2.6998,0,435.741,28.5,
1534,1,SBT2050,2,3,,1,661,3.70713,-2.6998,0,450.741,28.5,
1534,1,SBT2050,2,3,,1,681,3.70337,-2.6997,0,465.741,28.5,
1534,1,SBT2050,2,3,,1,701,3.69924,-2.7003,0,480.741,28.5,
1534,1,SBT2050,2,3,,1,721,3.69521,-2.7002,0,495.74,28.5,
1534,1,SBT2050,2,3,,1,741,3.690818,-2.7003,0,510.74,28.5,
1534,1,SBT2050,2,3,,1,761,3.68665,-2.6996,0,525.74,28.5,
1534,1,SBT2050,2,3,,1,781,3.68235,-2.7001,0,540.739,28.5,
1534,1,SBT2050,2,3,,1,801,3.67807,-2.7001,0,555.739,28.5,
1534,1,SBT2050,2,3,,1,821,3.67368,-2.7,0,570.739,28.5,
1534,1,SBT2050,2,3,,1,841,3.66966,-2.7,0,585.739,28.4,
1534,1,SBT2050,2,3,,1,861,3.66471,-2.6998,0,600.739,28.4,
1534,1,SBT2050,2,3,,1,881,3.66052,-2.6999,0,615.738,28.4,
1534,1,SBT2050,2,3,,1,901,3.656268,-2.7002,0,630.738,28.4,
1534,1,SBT2050,2,3,,1,921,3.65162,-2.7001,0,645.738,28.4,
1534,1,SBT2050,2,3,,1,941,3.647176,-2.7001,0,660.737,28.3,
1534,1,SBT2050,2,3,,1,961,3.64262,-2.7005,0,675.737,28.3,
1534,1,SBT2050,2,3,,1,981,3.6379,-2.6998,0,690.737,28.3,
1534,1,SBT2050,2,3,,1,1001,3.63313,-2.7001,0,705.736,28.2,
1534,1,SBT2050,2,3,,1,1021,3.6286,-2.6999,0,720.736,28.3,
1534,1,SBT2050,2,3,,1,1041,3.624,-2.7001,0,735.736,28.2,
1534,1,SBT2050,2,3,,1,1061,3.61927,-2.7001,0,750.735,28.2,
1534,1,SBT2050,2,3,,1,1081,3.61419,-2.7,0,765.735,28.2,
1534,1,SBT2050,2,3,,1,1101,3.60965,-2.7001,0,780.735,28.2,
1534,1,SBT2050,2,3,,1,1121,3.60475,-2.7002,0,795.734,28.2,
1534,1,SBT2050,2,3,,1,1141,3.59999,-2.6996,0,810.734,28.2,
1534,1,SBT2050,2,3,,1,1161,3.59501,-2.7002,0,825.734,28.2,
1534,1,SBT2050,2,3,,1,1181,3.59001,-2.7,0,840.734,28.3,
1534,1,SBT2050,2,3,,1,1201,3.58495,-2.6996,0,855.734,28.2,
1534,1,SBT2050,2,3,,1,1221,3.5801,-2.7004,0,870.733,28.2,
1534,1,SBT2050,2,3,,1,1241,3.57494,-2.6999,0,885.733,28.2,
1534,1,SBT2050,2,3,,1,1261,3.56959,-2.6998,0,900.733,28.3,
1534,1,SBT2050,2,3,,1,1281,3.5648,-2.6999,0,915.732,28.3,
1534,1,SBT2050,2,3,,1,1301,3.55984,-2.6998,0,930.732,28.3,
1534,1,SBT2050,2,3,,1,1321,3.55474,-2.6998,0,945.732,28.3,
1534,1,SBT2050,2,3,,1,1341,3.54975,-2.6998,0,960.731,28.3,
1534,1,SBT2050,2,3,,1,1361,3.54443,-2.6998,0,975.731,28.4,
1534,1,SBT2050,2,3,,1,1381,3.53948,-2.6996,0,990.731,28.4,
1534,1,SBT2050,2,3,,1,1401,3.53434,-2.6999,0,1005.731,28.4,
1534,1,SBT2050,2,3,,1,1421,3.5292,-2.7002,0,1020.73,28.4,
1534,1,SBT2050,2,3,,1,1441,3.52416,-2.7,0,1035.73,28.4,
1534,1,SBT2050,2,3,,1,1461,3.51897,-2.7001,0,1050.73,28.4,
1534,1,SBT2050,2,3,,1,1481,3.513996,-2.7001,0,1065.729,28.4,
1534,1,SBT2050,2,3,,1,1501,3.50858,-2.6996,0,1080.729,28.4,
1534,1,SBT2050,2,3,,1,1521,3.503748,-2.6995,0,1095.729,28.4,
1534,1,SBT2050,2,3,,1,1541,3.4984,-2.6998,0,1110.729,28.4,
1534,1,SBT2050,2,3,,1,1561,3.49319,-2.6999,0,1125.728,28.5,
1534,1,SBT2050,2,3,,1,1581,3.48833,-2.6999,0,1140.728,28.5,
1534,1,SBT2050,2,3,,1,1601,3.48316,-2.7001,0,1155.728,28.5,
1534,1,SBT2050,2,3,,1,1621,3.4785,-2.7003,0,1170.727,28.5,
1534,1,SBT2050,2,3,,1,1641,3.47346,-2.7004,0,1185.727,28.5,
1534,1,SBT2050,2,3,,1,1661,3.46862,-2.6999,0,1200.727,28.5,
1534,1,SBT2050,2,3,,1,1681,3.46351,-2.6998,0,1215.726,28.5,
1534,1,SBT2050,2,3,,1,1701,3.45862,-2.6999,0,1230.726,28.5,
1534,1,SBT2050,2,3,,1,1721,3.4537,-2.7001,0,1245.726,28.5,
1534,1,SBT2050,2,3,,1,1741,3.44867,-2.6998,0,1260.726,28.5,
1534,1,SBT2050,2,3,,1,1761,3.44372,-2.6998,0,1275.725,28.5,
1534,1,SBT2050,2,3,,1,1781,3.43875,-2.7001,0,1290.725,28.5,
1534,1,SBT2050,2,3,,1,1801,3.43426,-2.7002,0,1305.725,28.5,
1534,1,SBT2050,2,3,,1,1821,3.42926,-2.7,0,1320.724,28.5,
1534,1,SBT2050,2,3,,1,1841,3.42424,-2.7002,0,1335.724,28.5,
1534,1,SBT2050,2,3,,1,1861,3.41962,-2.6999,0,1350.724,28.5,
1534,1,SBT2050,2,3,,1,1881,3.41463,-2.6996,0,1365.724,28.6,
1534,1,SBT2050,2,3,,1,1901,3.41013,-2.7002,0,1380.723,28.6,
1534,1,SBT2050,2,3,,1,1921,3.405202,-2.6998,0,1395.723,28.6,
1534,1,SBT2050,2,3,,1,1941,3.40034,-2.7001,0,1410.723,28.6,
1534,1,SBT2050,2,3,,1,1961,3.39556,-2.7001,0,1425.723,28.6,
1534,1,SBT2050,2,3,,1,1981,3.390754,-2.7004,0,1440.722,28.6,
1534,1,SBT2050,2,3,,1,2001,3.38624,-2.6998,0,1455.722,28.6,
1534,1,SBT2050,2,3,,1,2021,3.38152,-2.6999,0,1470.722,28.6,
1534,1,SBT2050,2,3,,1,2041,3.37642,-2.6998,0,1485.721,28.7,
1534,1,SBT2050,2,3,,1,2061,3.37187,-2.6999,0,1500.721,28.7,
1534,1,SBT2050,2,3,,1,2081,3.366988,-2.6998,0,1515.721,28.7,
1534,1,SBT2050,2,3,,1,2101,3.36205,-2.7001,0,1530.721,28.7,
1534,1,SBT2050,2,3,,1,2121,3.35726,-2.6999,0,1545.72,28.7,
1534,1,SBT2050,2,3,,1,2141,3.35242,-2.6997,0,1560.72,28.7,
1534,1,SBT2050,2,3,,1,2161,3.34732,-2.6999,0,1575.72,28.7,
1534,1,SBT2050,2,3,,1,2181,3.342423,-2.7002,0,1590.72,28.8,
1534,1,SBT2050,2,3,,1,2201,3.3374,-2.6996,0,1605.719,28.8,
1534,1,SBT2050,2,3,,1,2221,3.33229,-2.6998,0,1620.719,28.8,
1534,1,SBT2050,2,3,,1,2241,3.32712,-2.7001,0,1635.719,28.8,
1534,1,SBT2050,2,3,,1,2261,3.32213,-2.7004,0,1650.719,28.9,
1534,1,SBT2050,2,3,,1,2281,3.31671,-2.6998,0,1665.718,28.9,
1534,1,SBT2050,2,3,,1,2301,3.3118,-2.7004,0,1680.718,28.9,
1534,1,SBT2050,2,3,,1,2321,3.30638,-2.6997,0,1695.718,28.9,
1534,1,SBT2050,2,3,,1,2341,3.300962,-2.7001,0,1710.717,29,
1534,1,SBT2050,2,3,,1,2361,3.29557,-2.7,0,1725.717,29,
1534,1,SBT2050,2,3,,1,2381,3.28994,-2.7001,0,1740.717,29,
1534,1,SBT2050,2,3,,1,2401,3.28407,-2.6999,0,1755.716,29,
1534,1,SBT2050,2,3,,1,2421,3.278246,-2.7,0,1770.716,29.1,
1534,1,SBT2050,2,3,,1,2441,3.27234,-2.7002,0,1785.716,29.1,
1534,1,SBT2050,2,3,,1,2461,3.2668,-2.6998,0,1800.716,29.2,
1534,1,SBT2050,2,3,,1,2481,3.2606,-2.6997,0,1815.716,29.2,
1534,1,SBT2050,2,3,,1,2501,3.25427,-2.7001,0,1830.715,29.2,
1534,1,SBT2050,2,3,,1,2521,3.24776,-2.7001,0,1845.715,29.3,
1534,1,SBT2050,2,3,,1,2541,3.24161,-2.7004,0,1860.715,29.3,
1534,1,SBT2050,2,3,,1,2561,3.23493,-2.7002,0,1875.714,29.3,
1534,1,SBT2050,2,3,,1,2581,3.22809,-2.7003,0,1890.714,29.4,
1534,1,SBT2050,2,3,,1,2601,3.22117,-2.6997,0,1905.714,29.4,
1534,1,SBT2050,2,3,,1,2621,3.21384,-2.6999,0,1920.714,29.4,
1534,1,SBT2050,2,3,,1,2641,3.20653,-2.7005,0,1935.713,29.5,
1534,1,SBT2050,2,3,,1,2661,3.19896,-2.7001,0,1950.713,29.5,
1534,1,SBT2050,2,3,,1,2681,3.19142,-2.6998,0,1965.713,29.5,
1534,1,SBT2050,2,3,,1,2701,3.18333,-2.7,0,1980.713,29.6,
1534,1,SBT2050,2,3,,1,2721,3.17525,-2.7,0,1995.712,29.7,
1534,1,SBT2050,2,3,,1,2741,3.16692,-2.7002,0,2010.712,29.7,
1534,1,SBT2050,2,3,,1,2761,3.158032,-2.7,0,2025.712,29.8,
1534,1,SBT2050,2,3,,1,2781,3.149112,-2.7002,0,2040.712,29.9,
1534,1,SBT2050,2,3,,1,2801,3.14014,-2.7002,0,2055.711,29.9,
1534,1,SBT2050,2,3,,1,2821,3.13009,-2.7,0,2070.711,30,
1534,1,SBT2050,2,3,,1,2841,3.12036,-2.6996,0,2085.711,30.1,
1534,1,SBT2050,2,3,,1,2861,3.10967,-2.6999,0,2100.711,30.1,
1534,1,SBT2050,2,3,,1,2881,3.09899,-2.7,0,2115.71,30.2,
1534,1,SBT2050,2,3,,1,2901,3.08782,-2.7003,0,2130.71,30.3,
1534,1,SBT2050,2,3,,1,2921,3.07614,-2.7001,0,2145.71,30.4,
1534,1,SBT2050,2,3,,1,2941,3.0642,-2.6998,0,2160.71,30.5,
1534,1,SBT2050,2,3,,1,2961,3.05166,-2.7001,0,2175.709,30.5,
1534,1,SBT2050,2,3,,1,2981,3.03828,-2.6998,0,2190.709,30.6,
1534,1,SBT2050,2,3,,1,3001,3.02471,-2.7,0,2205.709,30.7,
1534,1,SBT2050,2,3,,1,3021,3.01052,-2.7001,0,2220.709,30.8,
1534,1,SBT2050,2,3,,1,3041,2.99562,-2.7,0,2235.708,30.9,
1534,1,SBT2050,2,3,,1,3061,2.97999,-2.7001,0,2250.708,31,
1534,1,SBT2050,2,3,,1,3081,2.9632,-2.6996,0,2265.708,31.1,
1534,1,SBT2050,2,3,,1,3101,2.945664,-2.6999,0,2280.708,31.3,
1534,1,SBT2050,2,3,,1,3121,2.9268,-2.6999,0,2295.707,31.4,
1534,1,SBT2050,2,3,,1,3141,2.906585,-2.6999,0,2310.707,31.5,
1534,1,SBT2050,2,3,,1,3161,2.884471,-2.6998,0,2325.707,31.7,
1534,1,SBT2050,2,3,,1,3181,2.86077,-2.6997,0,2340.707,31.8,
1534,1,SBT2050,2,3,,1,3201,2.83469,-2.7002,0,2355.706,32,
1534,1,SBT2050,2,3,,1,3221,2.806217,-2.6998,0,2370.706,32.1,
1534,1,SBT2050,2,3,,1,3241,2.77455,-2.7,0,2385.706,32.3,
1534,1,SBT2050,2,3,,1,3261,2.73903,-2.6998,0,2400.705,32.5,
1534,1,SBT2050,2,3,,1,3281,2.69989,-2.7001,0,2415.705,32.8,
1534,1,SBT2050,2,3,,1,3301,2.655928,-2.7,0,2430.705,33,
1534,1,SBT2050,2,3,,1,3321,2.60629,-2.7,0,2445.704,33.3,
1534,1,SBT2050,2,3,,1,3341,2.54776,-2.7,0,2460.704,33.6,
1534,1,SBT2050,2,3,,2,3360,3.02718,0,0,2471.278,33.9,
1534,1,SBT2050,2,3,,2,3380,3.20721,0,0,2471.278,33.6,
1534,1,SBT2050,2,3,,2,3400,3.25023,0,0,2471.278,33,
1534,1,SBT2050,2,3,,2,3415.098,3.26935,-9.9E-05,0,2471.278,,

File: Test1536.csv
Request Year:,2018,,,,,,,,,,,,
Test:,1536,,,,,,,,,,,,
Test Description:,,,,,,,,,,,,,
TestRegime Name:,Aging_Performance,,,,,,,,,,,,
TestRegime Suffix:,SHP_LC,,,,,,,,,,,,
TestRegime CellSize:,18650,,,,,,,,,,,,
TestRegime Version:,1,,,,,,,,,,,,
Number Of Cells:,1,,,,,,,,,,,,
LotID:,,,,,,,,,,,,,
Lot Description:,,,,,,,,,,,,,
Date Made:,1/21/2003 12:00 AM,,,,,,,,,,,,
Origin:,Other,,,,,,,,,,,,
Requestor:,Admin,,,,,,,,,,,,
Product ID:,Default product,,,,,,,,,,,,
Storage Temp:,R.T./AMB,,,,,,,,,,,,
Storage Delay:,0 days,,,,,,,,,,,,
Test Temp:,R.T./AMB,,,,,,,,,,,,
Start Time:,4/22/2018 9:10 AM,,,,,,,,,,,,
End Time:,4/22/2018 7:24 PM,,,,,,,,,,,,
Operator Instructions:,,,,,,,,,,,,,
Test,Cell,Rack,Shelf,Position,Cell ID,Step,Total Time (Seconds),Voltage (V),Current (A),Charge Capacity (mAh),Discharge Capacity (mAh),TC1 (Â°C),
1536,1,SBT2050,2,3,,0,1,3.8733,0,0,0,27.1,
1536,1,SBT2050,2,3,,0,243,3.861342,0,0,0,26,
1536,1,SBT2050,2,3,,1,485,3.57142,-2.9357,0,150.874,27.3,
1536,1,SBT2050,2,3,,1,727,3.49205,-2.9354,0,348.234,28.2,
1536,1,SBT2050,2,3,,1,969,3.42046,-2.9355,0,545.596,28.5,
1536,1,SBT2050,2,3,,1,1211,3.348139,-2.9359,0,742.956,28.6,
1536,1,SBT2050,2,3,,1,1453,3.26835,-2.936,0,940.317,29.1,
1536,1,SBT2050,2,3,,1,1695,3.16384,-2.9359,0,1137.678,29.8,
1536,1,SBT2050,2,3,,1,1937,3.00661,-2.9362,0,1335.039,31.1,
1536,1,SBT2050,2,3,,1,2179,2.631742,-2.9358,0,1532.401,33.4,
1536,1,SBT2050,2,3,,1,2421,2.49979,-1.2467,0,1670.573,34.4,
1536,1,SBT2050,2,3,,1,2663,2.499805,-0.5526,0,1726.707,31,
1536,1,SBT2050,2,3,,1,2905,2.49995,-0.32661,0,1755.009,28.5,
1536,1,SBT2050,2,3,,1,3147,2.49995,-0.23018,0,1773.345,27,
1536,1,SBT2050,2,3,,1,3389,2.49984,-0.17697,0,1786.872,26.2,
1536,1,SBT2050,2,3,,1,3631,2.499972,-0.14289,0,1797.538,25.9,
1536,1,SBT2050,2,3,,1,3873,2.49985,-0.11815,0,1806.266,25.7,
1536,1,SBT2050,2,3,,1,4115,2.49996,-0.10021,0,1813.582,25.6,
1536,1,SBT2050,2,3,,1,4357,2.49991,-0.08626,0,1819.838,25.5,
1536,1,SBT2050,2,3,,1,4599,2.49996,-0.07531,0,1825.257,25.5,
1536,1,SBT2050,2,3,,1,4841,2.49988,-0.06578,0,1829.983,25.5,
1536,1,SBT2050,2,3,,1,5083,2.50004,-0.05764,0,1834.122,25.5,
1536,1,SBT2050,2,3,,1,5325,2.499984,-0.05069,0,1837.757,25.5,
1536,1,SBT2050,2,3,,1,5567,2.499984,-0.044628,0,1840.962,25.5,
1536,1,SBT2050,2,3,,1,5809,2.499984,-0.039526,0,1843.792,25.5,
1536,1,SBT2050,2,3,,1,6051,2.499817,-0.034538,0,1846.28,25.5,
1536,1,SBT2050,2,3,,1,6293,2.49986,-0.030226,0,1848.451,25.5,
1536,1,SBT2050,2,3,,1,6535,2.50016,-0.026118,0,1850.341,25.5,
1536,1,SBT2050,2,3,,1,6777,2.50007,-0.023038,0,1851.989,25.5,
1536,1,SBT2050,2,3,,1,7019,2.50015,-0.020083,0,1853.427,25.5,
1536,1,SBT2050,2,3,,1,7261,2.49986,-0.017328,0,1854.68,25.5,
1536,1,SBT2050,2,3,,1,7503,2.499984,-0.014965,0,1855.763,25.4,
1536,1,SBT2050,2,3,,1,7745,2.50008,-0.012936,0,1856.698,25.5,
1536,1,SBT2050,2,3,,1,7987,2.50007,-0.011171,0,1857.503,25.5,
1536,1,SBT2050,2,3,,2,8228,3.56278,2.9362,76.435,1857.939,26.3,
1536,1,SBT2050,2,3,,2,8470,3.68362,2.936,273.795,1857.939,29.1,
1536,1,SBT2050,2,3,,2,8712,3.730592,2.9363,471.156,1857.939,30.4,
1536,1,SBT2050,2,3,,2,8954,3.76729,2.9366,668.517,1857.939,30.6,
1536,1,SBT2050,2,3,,2,9196,3.80956,2.9361,865.878,1857.939,30.6,
1536,1,SBT2050,2,3,,2,9438,3.85866,2.9361,1063.239,1857.939,30.7,
1536,1,SBT2050,2,3,,2,9680,3.919962,2.9363,1260.6,1857.939,30.8,
1536,1,SBT2050,2,3,,2,9922,3.98884,2.936,1457.961,1857.939,31.1,
1536,1,SBT2050,2,3,,2,10164,4.06087,2.9364,1655.322,1857.939,31.3,
1536,1,SBT2050,2,3,,2,10406,4.135374,2.936,1852.684,1857.939,31.5,
1536,1,SBT2050,2,3,,2,10648,4.15013,2.2099,2028.932,1857.939,31.2,
1536,1,SBT2050,2,3,,2,10890,4.14997,1.5657,2154.406,1857.939,29.9,
1536,1,SBT2050,2,3,,2,11132,4.15004,1.144,2244.425,1857.939,28.7,
1536,1,SBT2050,2,3,,2,11374,4.15021,0.8704,2311.456,1857.939,27.8,
1536,1,SBT2050,2,3,,2,11616,4.15003,0.6834,2363.273,1857.939,27.2,
1536,1,SBT2050,2,3,,2,11858,4.14997,0.554,2404.595,1857.939,26.8,
1536,1,SBT2050,2,3,,2,12100,4.15013,0.45974,2438.49,1857.939,26.5,
1536,1,SBT2050,2,3,,2,12342,4.15008,0.39032,2466.939,1857.939,26.4,
1536,1,SBT2050,2,3,,2,12584,4.15002,0.33919,2491.38,1857.939,26.2,
1536,1,SBT2050,2,3,,2,12826,4.15009,0.29702,2512.707,1857.939,26.1,
1536,1,SBT2050,2,3,,2,13068,4.149936,0.26269,2531.485,1857.939,26,
1536,1,SBT2050,2,3,,2,13310,4.15015,0.23438,2548.143,1857.939,26,
1536,1,SBT2050,2,3,,2,13552,4.14998,0.21002,2563.029,1857.939,25.9,
1536,1,SBT2050,2,3,,2,13794,4.150222,0.1882,2576.4,1857.939,25.9,
1536,1,SBT2050,2,3,,2,14036,4.14988,0.17091,2588.471,1857.939,25.8,
1536,1,SBT2050,2,3,,2,14278,4.1501,0.15472,2599.412,1857.939,25.8,
1536,1,SBT2050,2,3,,2,14520,4.15019,0.14106,2609.352,1857.939,25.8,
1536,1,SBT2050,2,3,,2,14762,4.15008,0.12925,2618.433,1857.939,25.8,
1536,1,SBT2050,2,3,,2,15004,4.15008,0.11861,2626.731,1857.939,25.8,
1536,1,SBT2050,2,3,,2,15246,4.149936,0.10842,2634.346,1857.939,25.7,
1536,1,SBT2050,2,3,,2,15488,4.14996,0.10003,2641.344,1857.939,25.7,
1536,1,SBT2050,2,3,,2,15730,4.14998,0.09215,2647.799,1857.939,25.7,
1536,1,SBT2050,2,3,,2,15972,4.149948,0.08557,2653.782,1857.939,25.7,
1536,1,SBT2050,2,3,,2,16214,4.1497,0.08025,2659.343,1857.939,25.7,
1536,1,SBT2050,2,3,,2,16456,4.15009,0.07436,2664.518,1857.939,25.7,
1536,1,SBT2050,2,3,,2,16698,4.15032,0.06885,2669.326,1857.939,25.7,
1536,1,SBT2050,2,3,,2,16940,4.15007,0.06477,2673.82,1857.939,25.7,
1536,1,SBT2050,2,3,,2,17182,4.15002,0.06099,2678.018,1857.939,25.7,
1536,1,SBT2050,2,3,,2,17424,4.1501,0.05681,2681.954,1857.939,25.6,
1536,1,SBT2050,2,3,,2,17666,4.150222,0.05315,2685.637,1857.939,25.7,
1536,1,SBT2050,2,3,,2,17908,4.149912,0.04975,2689.089,1857.939,25.7,
1536,1,SBT2050,2,3,,2,18150,4.149948,0.047442,2692.334,1857.939,25.7,
1536,1,SBT2050,2,3,,2,18392,4.15004,0.04392,2695.406,1857.939,25.7,
1536,1,SBT2050,2,3,,2,18634,4.14988,0.041786,2698.294,1857.939,25.7,
1536,1,SBT2050,2,3,,2,18876,4.14983,0.039197,2701,1857.939,25.6,
1536,1,SBT2050,2,3,,2,19118,4.15028,0.036702,2703.555,1857.939,25.7,
1536,1,SBT2050,2,3,,2,19360,4.149936,0.03532,2705.975,1857.939,25.7,
1536,1,SBT2050,2,3,,2,19602,4.1498,0.033396,2708.266,1857.939,25.7,
1536,1,SBT2050,2,3,,2,19844,4.15014,0.031225,2710.431,1857.939,25.6,
1536,1,SBT2050,2,3,,2,20086,4.150234,0.027942,2712.469,1857.939,25.6,
1536,1,SBT2050,2,3,,2,20328,4.14983,0.025158,2714.241,1857.939,24.8,
1536,1,SBT2050,2,3,,2,20570,4.1502,0.022672,2715.834,1857.939,24.7,
1536,1,SBT2050,2,3,,2,20812,4.1501,0.020946,2717.319,1857.939,24.7,
1536,1,SBT2050,2,3,,2,21054,4.15006,0.019719,2718.687,1857.939,24.7,
1536,1,SBT2050,2,3,,2,21296,4.15004,0.019073,2720.012,1857.939,24.8,
1536,1,SBT2050,2,3,,2,21538,4.149924,0.018453,2721.286,1857.939,24.8,
1536,1,SBT2050,2,3,,2,21780,4.14989,0.017646,2722.52,1857.939,24.9,
1536,1,SBT2050,2,3,,2,22022,4.14984,0.017641,2723.718,1857.939,24.9,
1536,1,SBT2050,2,3,,2,22264,4.149912,0.016561,2724.862,1857.939,24.8,
1536,1,SBT2050,2,3,,2,22506,4.15015,0.015498,2725.926,1857.939,24.7,
1536,1,SBT2050,2,3,,2,22748,4.1501,0.015492,2726.956,1857.939,24.8,
1536,1,SBT2050,2,3,,2,22990,4.14976,0.015233,2727.982,1857.939,24.9,
1536,1,SBT2050,2,3,,2,23232,4.15008,0.014522,2728.985,1857.939,25.1,
1536,1,SBT2050,2,3,,2,23474,4.15007,0.014342,2729.988,1857.939,25.1,
1536,1,SBT2050,2,3,,2,23716,4.15014,0.013942,2730.946,1857.939,25.1,
1536,1,SBT2050,2,3,,2,23958,4.14989,0.01318,2731.86,1857.939,25.1,
1536,1,SBT2050,2,3,,2,24200,4.150222,0.012943,2732.748,1857.939,25.1,
1536,1,SBT2050,2,3,,2,24442,4.15008,0.01208,2733.593,1857.939,25,
1536,1,SBT2050,2,3,,2,24684,4.15008,0.011737,2734.406,1857.939,25,
1536,1,SBT2050,2,3,,2,24926,4.15008,0.011498,2735.192,1857.939,25,
1536,1,SBT2050,2,3,,2,25168,4.15008,0.011492,2735.961,1857.939,25,
1536,1,SBT2050,2,3,,2,25410,4.15006,0.010935,2736.698,1857.939,25,
1536,1,SBT2050,2,3,,3,25651,4.14972,0,2737.403,1857.939,25,
1536,1,SBT2050,2,3,,3,25893,4.14652,0,2737.403,1857.939,25,
1536,1,SBT2050,2,3,,3,26135,4.145636,0,2737.403,1857.939,25,
1536,1,SBT2050,2,3,,3,26377,4.14552,0,2737.403,1857.939,25,
1536,1,SBT2050,2,3,,3,26619,4.14488,0,2737.403,1857.939,25,
1536,1,SBT2050,2,3,,3,26861,4.14467,0,2737.403,1857.939,25,
1536,1,SBT2050,2,3,,3,27103,4.144232,0,2737.403,1857.939,25,
1536,1,SBT2050,2,3,,3,27345,4.14399,0,2737.403,1857.939,25,
1536,1,SBT2050,2,3,,4,27586,3.75426,-2.9358,2737.403,1969.154,27,
1536,1,SBT2050,2,3,,4,27828,3.718546,-2.9359,2737.403,2166.515,28.9,
1536,1,SBT2050,2,3,,4,28070,3.66801,-2.9358,2737.403,2363.877,29.4,
1536,1,SBT2050,2,3,,4,28312,3.60654,-2.9359,2737.403,2561.238,29.5,
1536,1,SBT2050,2,3,,4,28554,3.53935,-2.9359,2737.403,2758.6,29.5,
1536,1,SBT2050,2,3,,4,28796,3.46986,-2.9357,2737.403,2955.962,29.6,
1536,1,SBT2050,2,3,,4,29038,3.40106,-2.936,2737.403,3153.323,29.6,
1536,1,SBT2050,2,3,,4,29280,3.33288,-2.9359,2737.403,3350.685,29.7,
1536,1,SBT2050,2,3,,4,29522,3.25946,-2.9359,2737.403,3548.047,30.1,
1536,1,SBT2050,2,3,,4,29764,3.16898,-2.9359,2737.403,3745.408,30.7,
1536,1,SBT2050,2,3,,4,30006,3.04239,-2.936,2737.403,3942.769,31.6,
1536,1,SBT2050,2,3,,4,30248,2.82532,-2.9359,2737.403,4140.131,33.2,
1536,1,SBT2050,2,3,,4,30490,2.49982,-1.978,2737.403,4323.969,36,
1536,1,SBT2050,2,3,,4,30732,2.49999,-0.8341,2737.403,4411.752,33.3,
1536,1,SBT2050,2,3,,4,30974,2.49988,-0.45781,2737.403,4452.804,30,
1536,1,SBT2050,2,3,,4,31216,2.49998,-0.32095,2737.403,4478.355,28.1,
1536,1,SBT2050,2,3,,4,31458,2.500054,-0.25173,2737.403,4497.389,27.1,
1536,1,SBT2050,2,3,,4,31700,2.50001,-0.20633,2737.403,4512.715,26.5,
1536,1,SBT2050,2,3,,4,31942,2.49997,-0.17081,2737.403,4525.375,26.2,
1536,1,SBT2050,2,3,,4,32184,2.500054,-0.14172,2737.403,4535.856,26,
1536,1,SBT2050,2,3,,4,32426,2.49991,-0.118,2737.403,4544.558,25.8,
1536,1,SBT2050,2,3,,4,32668,2.50001,-0.0991,2737.403,4551.839,25.7,
1536,1,SBT2050,2,3,,4,32910,2.49998,-0.08417,2737.403,4557.987,25.5,
1536,1,SBT2050,2,3,,4,33152,2.499899,-0.07264,2737.403,4563.247,25.5,
1536,1,SBT2050,2,3,,4,33394,2.49995,-0.06298,2737.403,4567.801,25.4,
1536,1,SBT2050,2,3,,4,33636,2.49985,-0.05453,2737.403,4571.749,25.3,
1536,1,SBT2050,2,3,,4,33878,2.49999,-0.046186,2737.403,4575.127,25.3,
1536,1,SBT2050,2,3,,4,34120,2.50003,-0.039262,2737.403,4577.989,25.3,
1536,1,SBT2050,2,3,,4,34362,2.500054,-0.033932,2737.403,4580.435,25.2,
1536,1,SBT2050,2,3,,4,34604,2.49977,-0.0291,2737.403,4582.549,25.2,
1536,1,SBT2050,2,3,,4,34846,2.50009,-0.025311,2737.403,4584.378,25.2,
1536,1,SBT2050,2,3,,4,35088,2.49984,-0.021858,2737.403,4585.962,25.1,
1536,1,SBT2050,2,3,,4,35330,2.500197,-0.018784,2737.403,4587.324,25.1,
1536,1,SBT2050,2,3,,4,35572,2.50001,-0.016077,2737.403,4588.486,25.1,
1536,1,SBT2050,2,3,,4,35814,2.49984,-0.013784,2737.403,4589.482,25.1,
1536,1,SBT2050,2,3,,4,36056,2.50009,-0.011919,2737.403,4590.343,25,
1536,1,SBT2050,2,3,,4,36298,2.49991,-0.010362,2737.403,4591.09,25.1,
1536,1,SBT2050,2,3,,5,36539,2.5968,0,2737.403,4591.202,25,
1536,1,SBT2050,2,3,,5,36781,2.66066,0,2737.403,4591.202,25,
1536,1,SBT2050,2,3,,5,36799.364,2.66416,0,2737.403,4591.202,,