Folder: OR-RG_ExpRes/ORRG (part 7)

File: Test1553.csv
Request Year:,2018,,,,,,,,,,,,
Test:,1553,,,,,,,,,,,,
Test Description:,,,,,,,,,,,,,
TestRegime Name:,Dchg_1C,,,,,,,,,,,,
TestRegime Suffix:,SHP_LC,,,,,,,,,,,,
TestRegime CellSize:,18650,,,,,,,,,,,,
TestRegime Version:,1,,,,,,,,,,,,
Number Of Cells:,1,,,,,,,,,,,,
LotID:,,,,,,,,,,,,,
Lot Description:,,,,,,,,,,,,,
Date Made:,1/21/2003 12:00 AM,,,,,,,,,,,,
Origin:,Other,,,,,,,,,,,,
Requestor:,Admin,,,,,,,,,,,,
Product ID:,Default product,,,,,,,,,,,,
Storage Temp:,R.T./AMB,,,,,,,,,,,,
Storage Delay:,0 days,,,,,,,,,,,,
Test Temp:,R.T./AMB,,,,,,,,,,,,
Start Time:,4/25/2018 11:00 AM,,,,,,,,,,,,
End Time:,4/25/2018 11:51 AM,,,,,,,,,,,,
Operator Instructions:,,,,,,,,,,,,,
Test,Cell,Rack,Shelf,Position,Cell ID,Step,Total Time (Seconds),Voltage (V),Current (A),Charge Capacity (mAh),Discharge Capacity (mAh),TC1 (Â°C),
1553,1,SBT2050,2,3,,0,1,4.18255,0,0,0,25.9,
1553,1,SBT2050,2,3,,0,19,4.18082,0,0,0,25.9,
1553,1,SBT2050,2,3,,0,37,4.17955,0,0,0,25.8,
1553,1,SBT2050,2,3,,0,55,4.178098,0,0,0,25.8,
1553,1,SBT2050,2,3,,1,73,3.89905,-2.6999,0,9.749,25.8,
1553,1,SBT2050,2,3,,1,91,3.86622,-2.6995,0,23.248,26,
1553,1,SBT2050,2,3,,1,109,3.84593,-2.7001,0,36.748,26.2,
1553,1,SBT2050,2,3,,1,127,3.830954,-2.7001,0,50.248,26.5,
1553,1,SBT2050,2,3,,1,145,3.8188,-2.7001,0,63.747,26.8,
1553,1,SBT2050,2,3,,1,163,3.80827,-2.6998,0,77.247,27,
1553,1,SBT2050,2,3,,1,181,3.799076,-2.7002,0,90.747,27.2,
1553,1,SBT2050,2,3,,1,199,3.790618,-2.7004,0,104.247,27.4,
1553,1,SBT2050,2,3,,1,217,3.78275,-2.7,0,117.746,27.6,
1553,1,SBT2050,2,3,,1,235,3.77548,-2.6999,0,131.246,27.7,
1553,1,SBT2050,2,3,,1,253,3.76912,-2.6999,0,144.746,27.8,
1553,1,SBT2050,2,3,,1,271,3.76317,-2.6994,0,158.245,27.9,
1553,1,SBT2050,2,3,,1,289,3.757606,-2.6999,0,171.745,28,
1553,1,SBT2050,2,3,,1,307,3.75242,-2.7001,0,185.245,28.2,
1553,1,SBT2050,2,3,,1,325,3.74737,-2.6996,0,198.745,28.3,
1553,1,SBT2050,2,3,,1,343,3.74252,-2.7001,0,212.244,28.3,
1553,1,SBT2050,2,3,,1,361,3.73774,-2.7002,0,225.744,28.4,
1553,1,SBT2050,2,3,,1,379,3.73298,-2.6997,0,239.244,28.5,
1553,1,SBT2050,2,3,,1,397,3.72863,-2.7003,0,252.743,28.5,
1553,1,SBT2050,2,3,,1,415,3.72355,-2.7,0,266.243,28.6,
1553,1,SBT2050,2,3,,1,433,3.71887,-2.7,0,279.743,28.6,
1553,1,SBT2050,2,3,,1,451,3.71432,-2.6996,0,293.243,28.7,
1553,1,SBT2050,2,3,,1,469,3.70974,-2.6999,0,306.742,28.7,
1553,1,SBT2050,2,3,,1,487,3.70511,-2.7003,0,320.242,28.8,
1553,1,SBT2050,2,3,,1,505,3.700332,-2.7002,0,333.742,28.8,
1553,1,SBT2050,2,3,,1,523,3.69586,-2.7,0,347.242,28.8,
1553,1,SBT2050,2,3,,1,541,3.69102,-2.6997,0,360.742,28.9,
1553,1,SBT2050,2,3,,1,559,3.68662,-2.7004,0,374.241,28.9,
1553,1,SBT2050,2,3,,1,577,3.68193,-2.6998,0,387.741,28.9,
1553,1,SBT2050,2,3,,1,595,3.67735,-2.7002,0,401.241,28.9,
1553,1,SBT2050,2,3,,1,613,3.67277,-2.6996,0,414.74,29,
1553,1,SBT2050,2,3,,1,631,3.66826,-2.7,0,428.24,29,
1553,1,SBT2050,2,3,,1,649,3.66351,-2.7005,0,441.74,29,
1553,1,SBT2050,2,3,,1,667,3.65855,-2.7002,0,455.24,29,
1553,1,SBT2050,2,3,,1,685,3.65378,-2.7002,0,468.739,29,
1553,1,SBT2050,2,3,,1,703,3.64913,-2.7,0,482.239,29,
1553,1,SBT2050,2,3,,1,721,3.6443,-2.6999,0,495.739,29,
1553,1,SBT2050,2,3,,1,739,3.63958,-2.6999,0,509.239,29,
1553,1,SBT2050,2,3,,1,757,3.63472,-2.6996,0,522.738,29,
1553,1,SBT2050,2,3,,1,775,3.63005,-2.6998,0,536.238,28.9,
1553,1,SBT2050,2,3,,1,793,3.62503,-2.7,0,549.738,29,
1553,1,SBT2050,2,3,,1,811,3.62049,-2.7,0,563.237,29,
1553,1,SBT2050,2,3,,1,829,3.61543,-2.6999,0,576.737,29,
1553,1,SBT2050,2,3,,1,847,3.61084,-2.7001,0,590.237,29,
1553,1,SBT2050,2,3,,1,865,3.60586,-2.7002,0,603.737,29,
1553,1,SBT2050,2,3,,1,883,3.60103,-2.6999,0,617.236,29,
1553,1,SBT2050,2,3,,1,901,3.59623,-2.7,0,630.736,29,
1553,1,SBT2050,2,3,,1,919,3.5916,-2.7004,0,644.236,29,
1553,1,SBT2050,2,3,,1,937,3.58655,-2.6999,0,657.735,29,
1553,1,SBT2050,2,3,,1,955,3.58154,-2.7004,0,671.235,29,
1553,1,SBT2050,2,3,,1,973,3.576576,-2.6999,0,684.735,29,
1553,1,SBT2050,2,3,,1,991,3.57177,-2.7,0,698.234,29.1,
1553,1,SBT2050,2,3,,1,1009,3.566802,-2.7003,0,711.734,29.1,
1553,1,SBT2050,2,3,,1,1027,3.56195,-2.7002,0,725.234,29.1,
1553,1,SBT2050,2,3,,1,1045,3.55702,-2.6999,0,738.734,29.1,
1553,1,SBT2050,2,3,,1,1063,3.55197,-2.7004,0,752.234,29.1,
1553,1,SBT2050,2,3,,1,1081,3.54686,-2.7,0,765.733,29.1,
1553,1,SBT2050,2,3,,1,1099,3.5418,-2.7,0,779.233,29.1,
1553,1,SBT2050,2,3,,1,1117,3.53704,-2.7,0,792.733,29.1,
1553,1,SBT2050,2,3,,1,1135,3.53204,-2.7003,0,806.233,29.1,
1553,1,SBT2050,2,3,,1,1153,3.52702,-2.7002,0,819.732,29.1,
1553,1,SBT2050,2,3,,1,1171,3.52199,-2.7001,0,833.232,29.1,
1553,1,SBT2050,2,3,,1,1189,3.51684,-2.7002,0,846.732,29.1,
1553,1,SBT2050,2,3,,1,1207,3.51173,-2.6996,0,860.232,29.1,
1553,1,SBT2050,2,3,,1,1225,3.50681,-2.7003,0,873.732,29.1,
1553,1,SBT2050,2,3,,1,1243,3.50195,-2.6999,0,887.231,29.1,
1553,1,SBT2050,2,3,,1,1261,3.49668,-2.6996,0,900.731,29.1,
1553,1,SBT2050,2,3,,1,1279,3.49156,-2.7,0,914.231,29.2,
1553,1,SBT2050,2,3,,1,1297,3.48647,-2.7,0,927.73,29.1,
1553,1,SBT2050,2,3,,1,1315,3.48152,-2.6996,0,941.23,29.2,
1553,1,SBT2050,2,3,,1,1333,3.476498,-2.6999,0,954.73,29.1,
1553,1,SBT2050,2,3,,1,1351,3.47133,-2.6998,0,968.23,29.2,
1553,1,SBT2050,2,3,,1,1369,3.46629,-2.7001,0,981.729,29.2,
1553,1,SBT2050,2,3,,1,1387,3.46148,-2.6998,0,995.229,29.2,
1553,1,SBT2050,2,3,,1,1405,3.457048,-2.7001,0,1008.729,29.2,
1553,1,SBT2050,2,3,,1,1423,3.45215,-2.6999,0,1022.228,29.2,
1553,1,SBT2050,2,3,,1,1441,3.44729,-2.6998,0,1035.728,29.2,
1553,1,SBT2050,2,3,,1,1459,3.44222,-2.7,0,1049.228,29.2,
1553,1,SBT2050,2,3,,1,1477,3.43731,-2.6998,0,1062.728,29.2,
1553,1,SBT2050,2,3,,1,1495,3.43253,-2.7002,0,1076.227,29.2,
1553,1,SBT2050,2,3,,1,1513,3.42755,-2.6996,0,1089.727,29.2,
1553,1,SBT2050,2,3,,1,1531,3.42271,-2.6998,0,1103.227,29.2,
1553,1,SBT2050,2,3,,1,1549,3.41797,-2.7,0,1116.727,29.2,
1553,1,SBT2050,2,3,,1,1567,3.41292,-2.7002,0,1130.226,29.2,
1553,1,SBT2050,2,3,,1,1585,3.40818,-2.7005,0,1143.726,29.2,
1553,1,SBT2050,2,3,,1,1603,3.403194,-2.7002,0,1157.226,29.2,
1553,1,SBT2050,2,3,,1,1621,3.39845,-2.7005,0,1170.725,29.2,
1553,1,SBT2050,2,3,,1,1639,3.39344,-2.7,0,1184.225,29.2,
1553,1,SBT2050,2,3,,1,1657,3.38861,-2.6998,0,1197.725,29.2,
1553,1,SBT2050,2,3,,1,1675,3.38378,-2.6996,0,1211.225,29.3,
1553,1,SBT2050,2,3,,1,1693,3.37881,-2.6997,0,1224.724,29.3,
1553,1,SBT2050,2,3,,1,1711,3.37439,-2.7,0,1238.224,29.3,
1553,1,SBT2050,2,3,,1,1729,3.36952,-2.7,0,1251.724,29.3,
1553,1,SBT2050,2,3,,1,1747,3.36452,-2.7,0,1265.224,29.3,
1553,1,SBT2050,2,3,,1,1765,3.35984,-2.6998,0,1278.724,29.3,
1553,1,SBT2050,2,3,,1,1783,3.35506,-2.7,0,1292.223,29.3,
1553,1,SBT2050,2,3,,1,1801,3.34977,-2.7003,0,1305.723,29.3,
1553,1,SBT2050,2,3,,1,1819,3.34484,-2.7,0,1319.223,29.3,
1553,1,SBT2050,2,3,,1,1837,3.33998,-2.7002,0,1332.723,29.4,
1553,1,SBT2050,2,3,,1,1855,3.335151,-2.7,0,1346.222,29.4,
1553,1,SBT2050,2,3,,1,1873,3.33002,-2.7,0,1359.722,29.4,
1553,1,SBT2050,2,3,,1,1891,3.3247,-2.6999,0,1373.222,29.4,
1553,1,SBT2050,2,3,,1,1909,3.31981,-2.6997,0,1386.722,29.4,
1553,1,SBT2050,2,3,,1,1927,3.31467,-2.7001,0,1400.221,29.4,
1553,1,SBT2050,2,3,,1,1945,3.3093,-2.6995,0,1413.721,29.4,
1553,1,SBT2050,2,3,,1,1963,3.3041,-2.6999,0,1427.221,29.5,
1553,1,SBT2050,2,3,,1,1981,3.29868,-2.6999,0,1440.721,29.5,
1553,1,SBT2050,2,3,,1,1999,3.29326,-2.6999,0,1454.22,29.5,
1553,1,SBT2050,2,3,,1,2017,3.28808,-2.7001,0,1467.72,29.6,
1553,1,SBT2050,2,3,,1,2035,3.28238,-2.6996,0,1481.22,29.6,
1553,1,SBT2050,2,3,,1,2053,3.27702,-2.7001,0,1494.719,29.6,
1553,1,SBT2050,2,3,,1,2071,3.27144,-2.7,0,1508.219,29.6,
1553,1,SBT2050,2,3,,1,2089,3.265918,-2.6996,0,1521.719,29.7,
1553,1,SBT2050,2,3,,1,2107,3.26027,-2.6997,0,1535.218,29.7,
1553,1,SBT2050,2,3,,1,2125,3.25443,-2.6998,0,1548.718,29.7,
1553,1,SBT2050,2,3,,1,2143,3.248326,-2.7001,0,1562.218,29.7,
1553,1,SBT2050,2,3,,1,2161,3.24236,-2.6998,0,1575.718,29.8,
1553,1,SBT2050,2,3,,1,2179,3.23619,-2.6998,0,1589.217,29.8,
1553,1,SBT2050,2,3,,1,2197,3.22982,-2.7002,0,1602.717,29.8,
1553,1,SBT2050,2,3,,1,2215,3.22397,-2.6997,0,1616.217,29.8,
1553,1,SBT2050,2,3,,1,2233,3.21728,-2.6997,0,1629.717,29.9,
1553,1,SBT2050,2,3,,1,2251,3.21078,-2.6999,0,1643.216,29.9,
1553,1,SBT2050,2,3,,1,2269,3.20398,-2.7001,0,1656.716,30,
1553,1,SBT2050,2,3,,1,2287,3.19745,-2.6998,0,1670.216,30,
1553,1,SBT2050,2,3,,1,2305,3.19033,-2.7003,0,1683.715,30.1,
1553,1,SBT2050,2,3,,1,2323,3.18322,-2.6999,0,1697.215,30.1,
1553,1,SBT2050,2,3,,1,2341,3.17583,-2.7001,0,1710.715,30.2,
1553,1,SBT2050,2,3,,1,2359,3.16848,-2.7002,0,1724.214,30.2,
1553,1,SBT2050,2,3,,1,2377,3.16075,-2.6999,0,1737.714,30.3,
1553,1,SBT2050,2,3,,1,2395,3.15287,-2.7002,0,1751.214,30.3,
1553,1,SBT2050,2,3,,1,2413,3.14448,-2.6999,0,1764.714,30.3,
1553,1,SBT2050,2,3,,1,2431,3.13639,-2.7004,0,1778.213,30.4,
1553,1,SBT2050,2,3,,1,2449,3.12771,-2.7001,0,1791.713,30.4,
1553,1,SBT2050,2,3,,1,2467,3.11903,-2.7002,0,1805.213,30.5,
1553,1,SBT2050,2,3,,1,2485,3.11012,-2.6996,0,1818.712,30.5,
1553,1,SBT2050,2,3,,1,2503,3.10076,-2.6998,0,1832.212,30.6,
1553,1,SBT2050,2,3,,1,2521,3.09132,-2.7002,0,1845.712,30.7,
1553,1,SBT2050,2,3,,1,2539,3.08146,-2.7002,0,1859.211,30.8,
1553,1,SBT2050,2,3,,1,2557,3.07134,-2.7001,0,1872.711,30.8,
1553,1,SBT2050,2,3,,1,2575,3.06083,-2.7001,0,1886.211,30.9,
1553,1,SBT2050,2,3,,1,2593,3.049983,-2.6996,0,1899.71,30.9,
1553,1,SBT2050,2,3,,1,2611,3.03868,-2.6997,0,1913.21,31,
1553,1,SBT2050,2,3,,1,2629,3.02712,-2.6999,0,1926.71,31.1,
1553,1,SBT2050,2,3,,1,2647,3.01505,-2.6998,0,1940.21,31.2,
1553,1,SBT2050,2,3,,1,2665,3.00275,-2.7001,0,1953.709,31.2,
1553,1,SBT2050,2,3,,1,2683,2.98974,-2.6999,0,1967.209,31.4,
1553,1,SBT2050,2,3,,1,2701,2.97631,-2.6998,0,1980.709,31.4,
1553,1,SBT2050,2,3,,1,2719,2.96207,-2.6998,0,1994.208,31.6,
1553,1,SBT2050,2,3,,1,2737,2.94724,-2.6999,0,2007.708,31.6,
1553,1,SBT2050,2,3,,1,2755,2.93135,-2.7001,0,2021.208,31.7,
1553,1,SBT2050,2,3,,1,2773,2.91479,-2.6999,0,2034.707,31.8,
1553,1,SBT2050,2,3,,1,2791,2.897148,-2.7002,0,2048.207,32,
1553,1,SBT2050,2,3,,1,2809,2.87819,-2.7,0,2061.707,32,
1553,1,SBT2050,2,3,,1,2827,2.858049,-2.6999,0,2075.206,32.2,
1553,1,SBT2050,2,3,,1,2845,2.83628,-2.7002,0,2088.706,32.3,
1553,1,SBT2050,2,3,,1,2863,2.812512,-2.7002,0,2102.206,32.5,
1553,1,SBT2050,2,3,,1,2881,2.78712,-2.7001,0,2115.706,32.6,
1553,1,SBT2050,2,3,,1,2899,2.75955,-2.7,0,2129.205,32.8,
1553,1,SBT2050,2,3,,1,2917,2.72963,-2.7002,0,2142.705,33,
1553,1,SBT2050,2,3,,1,2935,2.69725,-2.7001,0,2156.205,33.2,
1553,1,SBT2050,2,3,,1,2953,2.66137,-2.7001,0,2169.705,33.4,
1553,1,SBT2050,2,3,,1,2971,2.62089,-2.7001,0,2183.204,33.6,
1553,1,SBT2050,2,3,,1,2989,2.574307,-2.7001,0,2196.704,33.9,
1553,1,SBT2050,2,3,,1,3007,2.51978,-2.7001,0,2210.204,34.2,
1553,1,SBT2050,2,3,,2,3024,3.1396,0,0,2214.535,34.3,
1553,1,SBT2050,2,3,,2,3042,3.22736,0,0,2214.535,33.9,
1553,1,SBT2050,2,3,,2,3060,3.26524,0,0,2214.535,33.4,
1553,1,SBT2050,2,3,,2,3072.774,3.28296,-9.9E-05,0,2214.535,,

File: Test1557.csv
Request Year:,2018,,,,,,,,,,,,
Test:,1557,,,,,,,,,,,,
Test Description:,,,,,,,,,,,,,
TestRegime Name:,Dchg_1C,,,,,,,,,,,,
TestRegime Suffix:,SHP_LC,,,,,,,,,,,,
TestRegime CellSize:,18650,,,,,,,,,,,,
TestRegime Version:,1,,,,,,,,,,,,
Number Of Cells:,1,,,,,,,,,,,,
LotID:,,,,,,,,,,,,,
Lot Description:,,,,,,,,,,,,,
Date Made:,1/21/2003 12:00 AM,,,,,,,,,,,,
Origin:,Other,,,,,,,,,,,,
Requestor:,Admin,,,,,,,,,,,,
Product ID:,Default product,,,,,,,,,,,,
Storage Temp:,R.T./AMB,,,,,,,,,,,,
Storage Delay:,0 days,,,,,,,,,,,,
Test Temp:,R.T./AMB,,,,,,,,,,,,
Start Time:,4/25/2018 8:40 PM,,,,,,,,,,,,
End Time:,4/25/2018 9:31 PM,,,,,,,,,,,,
Operator Instructions:,,,,,,,,,,,,,
Test,Cell,Rack,Shelf,Position,Cell ID,Step,Total Time (Seconds),Voltage (V),Current (A),Charge Capacity (mAh),Discharge Capacity (mAh),TC1 (Â°C),
1557,1,SBT2050,2,3,,0,1,4.17915,0,0,0,26.8,
1557,1,SBT2050,2,3,,0,19,4.17667,0,0,0,26.7,
1557,1,SBT2050,2,3,,0,37,4.17494,0,0,0,26.7,
1557,1,SBT2050,2,3,,0,55,4.1732,0,0,0,26.6,
1557,1,SBT2050,2,3,,1,73,3.88743,-2.6996,0,9.749,26.6,
1557,1,SBT2050,2,3,,1,91,3.853724,-2.7,0,23.248,26.9,
1557,1,SBT2050,2,3,,1,109,3.83257,-2.6998,0,36.748,27.1,
1557,1,SBT2050,2,3,,1,127,3.81717,-2.6999,0,50.248,27.4,
1557,1,SBT2050,2,3,,1,145,3.80457,-2.7,0,63.747,27.6,
1557,1,SBT2050,2,3,,1,163,3.79402,-2.7001,0,77.247,27.8,
1557,1,SBT2050,2,3,,1,181,3.78479,-2.6998,0,90.747,28,
1557,1,SBT2050,2,3,,1,199,3.77655,-2.6999,0,104.247,28.1,
1557,1,SBT2050,2,3,,1,217,3.76934,-2.7,0,117.746,28.3,
1557,1,SBT2050,2,3,,1,235,3.76281,-2.7,0,131.246,28.5,
1557,1,SBT2050,2,3,,1,253,3.75684,-2.6999,0,144.746,28.6,
1557,1,SBT2050,2,3,,1,271,3.75134,-2.7002,0,158.246,28.7,
1557,1,SBT2050,2,3,,1,289,3.74604,-2.6999,0,171.745,28.9,
1557,1,SBT2050,2,3,,1,307,3.741094,-2.7,0,185.245,28.9,
1557,1,SBT2050,2,3,,1,325,3.73653,-2.7002,0,198.745,29,
1557,1,SBT2050,2,3,,1,343,3.73166,-2.6996,0,212.244,29.1,
1557,1,SBT2050,2,3,,1,361,3.72663,-2.7001,0,225.744,29.2,
1557,1,SBT2050,2,3,,1,379,3.72175,-2.7,0,239.244,29.3,
1557,1,SBT2050,2,3,,1,397,3.71707,-2.6996,0,252.744,29.3,
1557,1,SBT2050,2,3,,1,415,3.71221,-2.6999,0,266.243,29.4,
1557,1,SBT2050,2,3,,1,433,3.70749,-2.6996,0,279.743,29.4,
1557,1,SBT2050,2,3,,1,451,3.70303,-2.7002,0,293.243,29.5,
1557,1,SBT2050,2,3,,1,469,3.69803,-2.7001,0,306.742,29.5,
1557,1,SBT2050,2,3,,1,487,3.69331,-2.6995,0,320.242,29.6,
1557,1,SBT2050,2,3,,1,505,3.68859,-2.6999,0,333.742,29.6,
1557,1,SBT2050,2,3,,1,523,3.68412,-2.6998,0,347.242,29.6,
1557,1,SBT2050,2,3,,1,541,3.67923,-2.7004,0,360.741,29.6,
1557,1,SBT2050,2,3,,1,559,3.67479,-2.7,0,374.241,29.7,
1557,1,SBT2050,2,3,,1,577,3.6698,-2.7003,0,387.741,29.7,
1557,1,SBT2050,2,3,,1,595,3.66508,-2.6999,0,401.241,29.7,
1557,1,SBT2050,2,3,,1,613,3.66026,-2.6997,0,414.74,29.7,
1557,1,SBT2050,2,3,,1,631,3.65532,-2.7004,0,428.24,29.7,
1557,1,SBT2050,2,3,,1,649,3.65063,-2.7,0,441.74,29.7,
1557,1,SBT2050,2,3,,1,667,3.64614,-2.7,0,455.24,29.7,
1557,1,SBT2050,2,3,,1,685,3.64114,-2.7003,0,468.739,29.7,
1557,1,SBT2050,2,3,,1,703,3.6364,-2.6999,0,482.239,29.7,
1557,1,SBT2050,2,3,,1,721,3.6315,-2.7003,0,495.739,29.8,
1557,1,SBT2050,2,3,,1,739,3.62661,-2.6998,0,509.239,29.8,
1557,1,SBT2050,2,3,,1,757,3.62207,-2.6996,0,522.738,29.7,
1557,1,SBT2050,2,3,,1,775,3.61716,-2.6998,0,536.238,29.8,
1557,1,SBT2050,2,3,,1,793,3.612396,-2.7001,0,549.738,29.8,
1557,1,SBT2050,2,3,,1,811,3.60759,-2.6998,0,563.237,29.8,
1557,1,SBT2050,2,3,,1,829,3.60242,-2.6998,0,576.737,29.8,
1557,1,SBT2050,2,3,,1,847,3.59768,-2.7001,0,590.237,29.8,
1557,1,SBT2050,2,3,,1,865,3.59271,-2.6998,0,603.736,29.8,
1557,1,SBT2050,2,3,,1,883,3.58794,-2.6998,0,617.236,29.9,
1557,1,SBT2050,2,3,,1,901,3.58285,-2.6996,0,630.736,29.9,
1557,1,SBT2050,2,3,,1,919,3.57787,-2.6996,0,644.236,29.8,
1557,1,SBT2050,2,3,,1,937,3.57267,-2.7001,0,657.735,29.9,
1557,1,SBT2050,2,3,,1,955,3.5677,-2.6996,0,671.235,29.9,
1557,1,SBT2050,2,3,,1,973,3.56248,-2.7001,0,684.735,29.9,
1557,1,SBT2050,2,3,,1,991,3.55727,-2.6997,0,698.234,29.9,
1557,1,SBT2050,2,3,,1,1009,3.55219,-2.6999,0,711.734,29.9,
1557,1,SBT2050,2,3,,1,1027,3.547524,-2.7,0,725.234,29.9,
1557,1,SBT2050,2,3,,1,1045,3.54244,-2.7002,0,738.733,29.9,
1557,1,SBT2050,2,3,,1,1063,3.53742,-2.7004,0,752.233,29.9,
1557,1,SBT2050,2,3,,1,1081,3.53243,-2.7,0,765.733,29.9,
1557,1,SBT2050,2,3,,1,1099,3.52717,-2.6996,0,779.232,30,
1557,1,SBT2050,2,3,,1,1117,3.521994,-2.7,0,792.732,30,
1557,1,SBT2050,2,3,,1,1135,3.51723,-2.7003,0,806.232,30,
1557,1,SBT2050,2,3,,1,1153,3.51189,-2.7002,0,819.732,30,
1557,1,SBT2050,2,3,,1,1171,3.506948,-2.6999,0,833.231,30,
1557,1,SBT2050,2,3,,1,1189,3.502024,-2.7,0,846.731,30,
1557,1,SBT2050,2,3,,1,1207,3.49677,-2.6999,0,860.231,30,
1557,1,SBT2050,2,3,,1,1225,3.4916,-2.6998,0,873.73,30,
1557,1,SBT2050,2,3,,1,1243,3.48686,-2.7001,0,887.23,30,
1557,1,SBT2050,2,3,,1,1261,3.48157,-2.7004,0,900.73,30,
1557,1,SBT2050,2,3,,1,1279,3.47666,-2.6999,0,914.229,30,
1557,1,SBT2050,2,3,,1,1297,3.47146,-2.7002,0,927.729,30.1,
1557,1,SBT2050,2,3,,1,1315,3.46653,-2.6999,0,941.229,30,
1557,1,SBT2050,2,3,,1,1333,3.461236,-2.6998,0,954.729,30.1,
1557,1,SBT2050,2,3,,1,1351,3.45669,-2.6995,0,968.228,30.1,
1557,1,SBT2050,2,3,,1,1369,3.45151,-2.6998,0,981.728,30,
1557,1,SBT2050,2,3,,1,1387,3.44643,-2.7001,0,995.228,30.1,
1557,1,SBT2050,2,3,,1,1405,3.441384,-2.7002,0,1008.728,30.1,
1557,1,SBT2050,2,3,,1,1423,3.43648,-2.7,0,1022.227,30.1,
1557,1,SBT2050,2,3,,1,1441,3.43144,-2.6999,0,1035.727,30.1,
1557,1,SBT2050,2,3,,1,1459,3.42654,-2.6997,0,1049.227,30.1,
1557,1,SBT2050,2,3,,1,1477,3.42138,-2.6996,0,1062.727,30.1,
1557,1,SBT2050,2,3,,1,1495,3.41655,-2.7002,0,1076.226,30.1,
1557,1,SBT2050,2,3,,1,1513,3.411742,-2.6997,0,1089.726,30.1,
1557,1,SBT2050,2,3,,1,1531,3.40674,-2.6996,0,1103.226,30.1,
1557,1,SBT2050,2,3,,1,1549,3.401794,-2.7004,0,1116.725,30.1,
1557,1,SBT2050,2,3,,1,1567,3.39699,-2.6997,0,1130.225,30.1,
1557,1,SBT2050,2,3,,1,1585,3.3921,-2.7001,0,1143.725,30.1,
1557,1,SBT2050,2,3,,1,1603,3.38705,-2.7001,0,1157.225,30.1,
1557,1,SBT2050,2,3,,1,1621,3.38216,-2.7003,0,1170.724,30.1,
1557,1,SBT2050,2,3,,1,1639,3.37723,-2.7,0,1184.224,30.1,
1557,1,SBT2050,2,3,,1,1657,3.37205,-2.6999,0,1197.724,30.1,
1557,1,SBT2050,2,3,,1,1675,3.367096,-2.6999,0,1211.224,30.1,
1557,1,SBT2050,2,3,,1,1693,3.36216,-2.6999,0,1224.723,30.2,
1557,1,SBT2050,2,3,,1,1711,3.3571,-2.6999,0,1238.223,30.2,
1557,1,SBT2050,2,3,,1,1729,3.35215,-2.7,0,1251.723,30.2,
1557,1,SBT2050,2,3,,1,1747,3.347451,-2.6998,0,1265.223,30.2,
1557,1,SBT2050,2,3,,1,1765,3.34219,-2.6997,0,1278.722,30.2,
1557,1,SBT2050,2,3,,1,1783,3.33679,-2.7,0,1292.222,30.2,
1557,1,SBT2050,2,3,,1,1801,3.33173,-2.7004,0,1305.722,30.2,
1557,1,SBT2050,2,3,,1,1819,3.32672,-2.6999,0,1319.222,30.2,
1557,1,SBT2050,2,3,,1,1837,3.32165,-2.6998,0,1332.721,30.3,
1557,1,SBT2050,2,3,,1,1855,3.31649,-2.7003,0,1346.221,30.3,
1557,1,SBT2050,2,3,,1,1873,3.3111,-2.6998,0,1359.721,30.4,
1557,1,SBT2050,2,3,,1,1891,3.30607,-2.6997,0,1373.221,30.4,
1557,1,SBT2050,2,3,,1,1909,3.30062,-2.6999,0,1386.721,30.4,
1557,1,SBT2050,2,3,,1,1927,3.295112,-2.6999,0,1400.22,30.4,
1557,1,SBT2050,2,3,,1,1945,3.28958,-2.6999,0,1413.72,30.4,
1557,1,SBT2050,2,3,,1,1963,3.28444,-2.7002,0,1427.22,30.4,
1557,1,SBT2050,2,3,,1,1981,3.2789,-2.7002,0,1440.719,30.4,
1557,1,SBT2050,2,3,,1,1999,3.273331,-2.6996,0,1454.219,30.5,
1557,1,SBT2050,2,3,,1,2017,3.26755,-2.6999,0,1467.719,30.4,
1557,1,SBT2050,2,3,,1,2035,3.2615,-2.6998,0,1481.218,30.5,
1557,1,SBT2050,2,3,,1,2053,3.255792,-2.7001,0,1494.718,30.5,
1557,1,SBT2050,2,3,,1,2071,3.249981,-2.6998,0,1508.218,30.5,
1557,1,SBT2050,2,3,,1,2089,3.24383,-2.7002,0,1521.718,30.6,
1557,1,SBT2050,2,3,,1,2107,3.23779,-2.7,0,1535.217,30.6,
1557,1,SBT2050,2,3,,1,2125,3.23167,-2.7,0,1548.717,30.6,
1557,1,SBT2050,2,3,,1,2143,3.22532,-2.7002,0,1562.217,30.7,
1557,1,SBT2050,2,3,,1,2161,3.219028,-2.7006,0,1575.717,30.7,
1557,1,SBT2050,2,3,,1,2179,3.2127,-2.6999,0,1589.216,30.8,
1557,1,SBT2050,2,3,,1,2197,3.20604,-2.6995,0,1602.716,30.8,
1557,1,SBT2050,2,3,,1,2215,3.19924,-2.7,0,1616.216,30.9,
1557,1,SBT2050,2,3,,1,2233,3.19224,-2.7,0,1629.716,30.9,
1557,1,SBT2050,2,3,,1,2251,3.18505,-2.6999,0,1643.216,30.9,
1557,1,SBT2050,2,3,,1,2269,3.17794,-2.6997,0,1656.715,30.9,
1557,1,SBT2050,2,3,,1,2287,3.17064,-2.7,0,1670.215,31,
1557,1,SBT2050,2,3,,1,2305,3.162964,-2.6999,0,1683.715,31.1,
1557,1,SBT2050,2,3,,1,2323,3.15506,-2.6998,0,1697.215,31.1,
1557,1,SBT2050,2,3,,1,2341,3.14706,-2.7,0,1710.714,31.1,
1557,1,SBT2050,2,3,,1,2359,3.13889,-2.7,0,1724.214,31.2,
1557,1,SBT2050,2,3,,1,2377,3.13077,-2.7,0,1737.714,31.2,
1557,1,SBT2050,2,3,,1,2395,3.12222,-2.7002,0,1751.214,31.3,
1557,1,SBT2050,2,3,,1,2413,3.11313,-2.7001,0,1764.713,31.3,
1557,1,SBT2050,2,3,,1,2431,3.10407,-2.6997,0,1778.213,31.4,
1557,1,SBT2050,2,3,,1,2449,3.09475,-2.6999,0,1791.713,31.5,
1557,1,SBT2050,2,3,,1,2467,3.08519,-2.6999,0,1805.212,31.5,
1557,1,SBT2050,2,3,,1,2485,3.07543,-2.6997,0,1818.712,31.6,
1557,1,SBT2050,2,3,,1,2503,3.06498,-2.7002,0,1832.212,31.7,
1557,1,SBT2050,2,3,,1,2521,3.05442,-2.6997,0,1845.712,31.7,
1557,1,SBT2050,2,3,,1,2539,3.04376,-2.7001,0,1859.212,31.8,
1557,1,SBT2050,2,3,,1,2557,3.03224,-2.6998,0,1872.711,31.9,
1557,1,SBT2050,2,3,,1,2575,3.02059,-2.7001,0,1886.211,31.9,
1557,1,SBT2050,2,3,,1,2593,3.00819,-2.7004,0,1899.711,32.1,
1557,1,SBT2050,2,3,,1,2611,2.99564,-2.6997,0,1913.211,32.1,
1557,1,SBT2050,2,3,,1,2629,2.982789,-2.7004,0,1926.71,32.2,
1557,1,SBT2050,2,3,,1,2647,2.96899,-2.6996,0,1940.21,32.3,
1557,1,SBT2050,2,3,,1,2665,2.95483,-2.6996,0,1953.71,32.5,
1557,1,SBT2050,2,3,,1,2683,2.939954,-2.7,0,1967.21,32.5,
1557,1,SBT2050,2,3,,1,2701,2.92425,-2.6999,0,1980.709,32.6,
1557,1,SBT2050,2,3,,1,2719,2.90742,-2.6997,0,1994.209,32.7,
1557,1,SBT2050,2,3,,1,2737,2.88921,-2.7002,0,2007.709,32.8,
1557,1,SBT2050,2,3,,1,2755,2.87053,-2.6998,0,2021.208,33,
1557,1,SBT2050,2,3,,1,2773,2.85012,-2.7001,0,2034.708,33.1,
1557,1,SBT2050,2,3,,1,2791,2.82812,-2.6997,0,2048.208,33.3,
1557,1,SBT2050,2,3,,1,2809,2.804818,-2.7,0,2061.708,33.4,
1557,1,SBT2050,2,3,,1,2827,2.77946,-2.7003,0,2075.208,33.6,
1557,1,SBT2050,2,3,,1,2845,2.75199,-2.6999,0,2088.707,33.7,
1557,1,SBT2050,2,3,,1,2863,2.722726,-2.6997,0,2102.207,34,
1557,1,SBT2050,2,3,,1,2881,2.69054,-2.6996,0,2115.707,34.1,
1557,1,SBT2050,2,3,,1,2899,2.6548,-2.6997,0,2129.207,34.3,
1557,1,SBT2050,2,3,,1,2917,2.614264,-2.7,0,2142.706,34.6,
1557,1,SBT2050,2,3,,1,2935,2.567495,-2.6998,0,2156.206,34.8,
1557,1,SBT2050,2,3,,1,2953,2.51214,-2.7001,0,2169.706,35.1,
1557,1,SBT2050,2,3,,2,2970,3.155329,0,0,2172.345,35.2,
1557,1,SBT2050,2,3,,2,2988,3.23136,0,0,2172.345,34.7,
1557,1,SBT2050,2,3,,2,3006,3.26775,0,0,2172.345,34.2,
1557,1,SBT2050,2,3,,2,3016.518,3.28026,-0.0001,0,2172.345,,