Folder: OR-RG_ExpRes/ORRG (part 13)

File: Test1583.csv
Request Year:,2018,,,,,,,,,,,,
Test:,1583,,,,,,,,,,,,
Test Description:,,,,,,,,,,,,,
TestRegime Name:,Aging_Performance,,,,,,,,,,,,
TestRegime Suffix:,SHP_LC,,,,,,,,,,,,
TestRegime CellSize:,18650,,,,,,,,,,,,
TestRegime Version:,1,,,,,,,,,,,,
Number Of Cells:,1,,,,,,,,,,,,
LotID:,,,,,,,,,,,,,
Lot Description:,,,,,,,,,,,,,
Date Made:,1/21/2003 12:00 AM,,,,,,,,,,,,
Origin:,Other,,,,,,,,,,,,
Requestor:,Admin,,,,,,,,,,,,
Product ID:,Default product,,,,,,,,,,,,
Storage Temp:,R.T./AMB,,,,,,,,,,,,
Storage Delay:,0 days,,,,,,,,,,,,
Test Temp:,R.T./AMB,,,,,,,,,,,,
Start Time:,4/28/2018 3:01 PM,,,,,,,,,,,,
End Time:,4/29/2018 3:34 AM,,,,,,,,,,,,
Operator Instructions:,,,,,,,,,,,,,
Test,Cell,Rack,Shelf,Position,Cell ID,Step,Total Time (Seconds),Voltage (V),Current (A),Charge Capacity (mAh),Discharge Capacity (mAh),TC1 (Â°C),
1583,1,SBT2050,2,3,,0,1,3.33514,0,0,0,29.2,
1583,1,SBT2050,2,3,,0,295,3.35242,0,0,0,26.6,
1583,1,SBT2050,2,3,,1,589,2.499938,-0.8197,0,110.39,29.6,
1583,1,SBT2050,2,3,,1,883,2.49983,-0.46097,0,160.486,28.4,
1583,1,SBT2050,2,3,,1,1177,2.499926,-0.30692,0,191.021,27.3,
1583,1,SBT2050,2,3,,1,1471,2.50003,-0.22548,0,212.473,26.7,
1583,1,SBT2050,2,3,,1,1765,2.49996,-0.17198,0,228.569,26.2,
1583,1,SBT2050,2,3,,1,2059,2.500081,-0.13611,0,241.051,25.9,
1583,1,SBT2050,2,3,,1,2353,2.49989,-0.1104,0,251.062,25.8,
1583,1,SBT2050,2,3,,1,2647,2.49999,-0.09144,0,259.267,25.6,
1583,1,SBT2050,2,3,,1,2941,2.49996,-0.07649,0,266.086,25.5,
1583,1,SBT2050,2,3,,1,3235,2.50013,-0.06522,0,271.833,25.4,
1583,1,SBT2050,2,3,,1,3529,2.5,-0.05615,0,276.766,25.4,
1583,1,SBT2050,2,3,,1,3823,2.500081,-0.04876,0,281.037,25.3,
1583,1,SBT2050,2,3,,1,4117,2.49999,-0.042152,0,284.746,25.2,
1583,1,SBT2050,2,3,,1,4411,2.499926,-0.036054,0,287.939,25.2,
1583,1,SBT2050,2,3,,1,4705,2.49996,-0.031433,0,290.691,25.2,
1583,1,SBT2050,2,3,,1,4999,2.50003,-0.02762,0,293.092,25.2,
1583,1,SBT2050,2,3,,1,5293,2.50003,-0.024518,0,295.218,25.1,
1583,1,SBT2050,2,3,,1,5587,2.50003,-0.022037,0,297.118,25.1,
1583,1,SBT2050,2,3,,1,5881,2.50002,-0.019793,0,298.826,25.1,
1583,1,SBT2050,2,3,,1,6175,2.50014,-0.0179,0,300.368,25.1,
1583,1,SBT2050,2,3,,1,6469,2.50005,-0.015966,0,301.753,25,
1583,1,SBT2050,2,3,,1,6763,2.499926,-0.014451,0,302.996,25,
1583,1,SBT2050,2,3,,1,7057,2.500069,-0.012994,0,304.114,25,
1583,1,SBT2050,2,3,,1,7351,2.50001,-0.011594,0,305.117,25.1,
1583,1,SBT2050,2,3,,1,7645,2.50001,-0.010207,0,306.01,25,
1583,1,SBT2050,2,3,,2,7938,3.690784,2.936,202.794,306.136,28,
1583,1,SBT2050,2,3,,2,8232,3.76121,2.9359,442.562,306.136,29.9,
1583,1,SBT2050,2,3,,2,8526,3.81234,2.936,682.33,306.136,30.3,
1583,1,SBT2050,2,3,,2,8820,3.87271,2.9358,922.099,306.136,30.4,
1583,1,SBT2050,2,3,,2,9114,3.94957,2.9362,1161.867,306.136,30.6,
1583,1,SBT2050,2,3,,2,9408,4.0405,2.9364,1401.635,306.136,31,
1583,1,SBT2050,2,3,,2,9702,4.13627,2.9359,1641.404,306.136,31.3,
1583,1,SBT2050,2,3,,2,9996,4.15016,2.0559,1847.31,306.136,30.7,
1583,1,SBT2050,2,3,,2,10290,4.150216,1.4006,1986.208,306.136,28.9,
1583,1,SBT2050,2,3,,2,10584,4.15005,1.0057,2083.094,306.136,27.6,
1583,1,SBT2050,2,3,,2,10878,4.15011,0.7612,2154.543,306.136,26.7,
1583,1,SBT2050,2,3,,2,11172,4.150252,0.6004,2209.736,306.136,26.2,
1583,1,SBT2050,2,3,,2,11466,4.149918,0.4894,2253.968,306.136,25.9,
1583,1,SBT2050,2,3,,2,11760,4.15,0.40721,2290.399,306.136,25.7,
1583,1,SBT2050,2,3,,2,12054,4.14994,0.34296,2320.913,306.136,25.6,
1583,1,SBT2050,2,3,,2,12348,4.14999,0.2949,2346.86,306.136,25.4,
1583,1,SBT2050,2,3,,2,12642,4.15011,0.25617,2369.268,306.136,25.3,
1583,1,SBT2050,2,3,,2,12936,4.14999,0.22541,2388.878,306.136,25.2,
1583,1,SBT2050,2,3,,2,13230,4.150192,0.20015,2406.216,306.136,25.2,
1583,1,SBT2050,2,3,,2,13524,4.14999,0.18015,2421.705,306.136,25.2,
1583,1,SBT2050,2,3,,2,13818,4.15029,0.16192,2435.628,306.136,25.2,
1583,1,SBT2050,2,3,,2,14112,4.150204,0.14716,2448.229,306.136,25.2,
1583,1,SBT2050,2,3,,2,14406,4.14999,0.13446,2459.699,306.136,25.2,
1583,1,SBT2050,2,3,,2,14700,4.14994,0.12291,2470.186,306.136,25.2,
1583,1,SBT2050,2,3,,2,14994,4.15,0.11264,2479.799,306.136,25.1,
1583,1,SBT2050,2,3,,2,15288,4.15024,0.10366,2488.649,306.136,25.1,
1583,1,SBT2050,2,3,,2,15582,4.14993,0.09558,2496.798,306.136,25.1,
1583,1,SBT2050,2,3,,2,15876,4.149918,0.08885,2504.342,306.136,25.1,
1583,1,SBT2050,2,3,,2,16170,4.149894,0.08256,2511.34,306.136,25.1,
1583,1,SBT2050,2,3,,2,16464,4.149918,0.07655,2517.85,306.136,25.1,
1583,1,SBT2050,2,3,,2,16758,4.15003,0.07115,2523.892,306.136,25.1,
1583,1,SBT2050,2,3,,2,17052,4.15001,0.06636,2529.523,306.136,25.1,
1583,1,SBT2050,2,3,,2,17346,4.149918,0.06231,2534.782,306.136,25.1,
1583,1,SBT2050,2,3,,2,17640,4.1501,0.05826,2539.709,306.136,25,
1583,1,SBT2050,2,3,,2,17934,4.14994,0.05465,2544.328,306.136,25,
1583,1,SBT2050,2,3,,2,18228,4.15004,0.05137,2548.655,306.136,25,
1583,1,SBT2050,2,3,,2,18522,4.15,0.04818,2552.718,306.136,25,
1583,1,SBT2050,2,3,,2,18816,4.14982,0.045658,2556.557,306.136,25,
1583,1,SBT2050,2,3,,2,19110,4.15004,0.043362,2560.179,306.136,25,
1583,1,SBT2050,2,3,,2,19404,4.15007,0.040654,2563.603,306.136,25,
1583,1,SBT2050,2,3,,2,19698,4.14972,0.038305,2566.825,306.136,25,
1583,1,SBT2050,2,3,,2,19992,4.15012,0.036147,2569.883,306.136,25,
1583,1,SBT2050,2,3,,2,20286,4.15005,0.034704,2572.786,306.136,25,
1583,1,SBT2050,2,3,,2,20580,4.14987,0.032881,2575.544,306.136,25,
1583,1,SBT2050,2,3,,2,20874,4.14993,0.031316,2578.159,306.136,25,
1583,1,SBT2050,2,3,,2,21168,4.15007,0.030015,2580.658,306.136,25,
1583,1,SBT2050,2,3,,2,21462,4.14997,0.027985,2583.029,306.136,25,
1583,1,SBT2050,2,3,,2,21756,4.15013,0.026841,2585.284,306.136,25,
1583,1,SBT2050,2,3,,2,22050,4.150252,0.025486,2587.438,306.136,25,
1583,1,SBT2050,2,3,,2,22344,4.15012,0.024692,2589.497,306.136,25,
1583,1,SBT2050,2,3,,2,22638,4.14968,0.023482,2591.458,306.136,25,
1583,1,SBT2050,2,3,,2,22932,4.150216,0.022331,2593.332,306.136,25,
1583,1,SBT2050,2,3,,2,23226,4.14995,0.021497,2595.124,306.136,25,
1583,1,SBT2050,2,3,,2,23520,4.150204,0.020426,2596.849,306.136,25,
1583,1,SBT2050,2,3,,2,23814,4.149906,0.019932,2598.508,306.136,25,
1583,1,SBT2050,2,3,,2,24108,4.15003,0.019047,2600.101,306.136,25,
1583,1,SBT2050,2,3,,2,24402,4.15014,0.018254,2601.63,306.136,25,
1583,1,SBT2050,2,3,,2,24696,4.15008,0.017698,2603.096,306.136,25,
1583,1,SBT2050,2,3,,2,24990,4.15024,0.016728,2604.498,306.136,25,
1583,1,SBT2050,2,3,,2,25284,4.14985,0.016333,2605.861,306.136,25,
1583,1,SBT2050,2,3,,2,25578,4.14973,0.015682,2607.165,306.136,25,
1583,1,SBT2050,2,3,,2,25872,4.14999,0.01542,2608.425,306.136,25.1,
1583,1,SBT2050,2,3,,2,26166,4.14995,0.014606,2609.637,306.136,25,
1583,1,SBT2050,2,3,,2,26460,4.150204,0.013723,2610.802,306.136,25,
1583,1,SBT2050,2,3,,2,26754,4.14976,0.013629,2611.931,306.136,25,
1583,1,SBT2050,2,3,,2,27048,4.149918,0.012886,2613.013,306.136,25,
1583,1,SBT2050,2,3,,2,27342,4.14995,0.012759,2614.061,306.136,25,
1583,1,SBT2050,2,3,,2,27636,4.15024,0.012051,2615.075,306.136,25,
1583,1,SBT2050,2,3,,2,27930,4.149906,0.012103,2616.07,306.136,25,
1583,1,SBT2050,2,3,,2,28224,4.15016,0.011212,2617.026,306.136,25,
1583,1,SBT2050,2,3,,2,28518,4.14987,0.011344,2617.952,306.136,25,
1583,1,SBT2050,2,3,,2,28812,4.14997,0.010735,2618.852,306.136,25,
1583,1,SBT2050,2,3,,2,29106,4.15007,0.010436,2619.723,306.136,25,
1583,1,SBT2050,2,3,,3,29399,4.14643,0,2619.753,306.136,25,
1583,1,SBT2050,2,3,,3,29693,4.14567,0,2619.753,306.136,25,
1583,1,SBT2050,2,3,,3,29987,4.14513,0,2619.753,306.136,25,
1583,1,SBT2050,2,3,,3,30281,4.14418,0,2619.753,306.136,25,
1583,1,SBT2050,2,3,,3,30575,4.14349,0,2619.753,306.136,25,
1583,1,SBT2050,2,3,,3,30869,4.14336,0,2619.753,306.136,25,
1583,1,SBT2050,2,3,,4,31162,3.69923,-2.9359,2619.753,506.616,28.4,
1583,1,SBT2050,2,3,,4,31456,3.64355,-2.936,2619.753,746.386,29.7,
1583,1,SBT2050,2,3,,4,31750,3.56567,-2.9359,2619.753,986.156,29.9,
1583,1,SBT2050,2,3,,4,32044,3.48015,-2.9359,2619.753,1225.926,30,
1583,1,SBT2050,2,3,,4,32338,3.391006,-2.936,2619.753,1465.695,30.1,
1583,1,SBT2050,2,3,,4,32632,3.29919,-2.9362,2619.753,1705.465,30.3,
1583,1,SBT2050,2,3,,4,32926,3.19619,-2.9358,2619.753,1945.235,30.8,
1583,1,SBT2050,2,3,,4,33220,3.058935,-2.9356,2619.753,2185.006,31.7,
1583,1,SBT2050,2,3,,4,33514,2.82426,-2.936,2619.753,2424.776,33.5,
1583,1,SBT2050,2,3,,4,33808,2.49978,-1.5932,2619.753,2633.946,35.9,
1583,1,SBT2050,2,3,,4,34102,2.49982,-0.6146,2619.753,2715.036,31.7,
1583,1,SBT2050,2,3,,4,34396,2.49994,-0.36328,2619.753,2752.82,28.6,
1583,1,SBT2050,2,3,,4,34690,2.49994,-0.27145,2619.753,2778.301,27.2,
1583,1,SBT2050,2,3,,4,34984,2.499919,-0.21996,2619.753,2798.214,26.6,
1583,1,SBT2050,2,3,,4,35278,2.50001,-0.18231,2619.753,2814.558,26.2,
1583,1,SBT2050,2,3,,4,35572,2.49974,-0.15173,2619.753,2828.147,26,
1583,1,SBT2050,2,3,,4,35866,2.49998,-0.12875,2619.753,2839.556,25.8,
1583,1,SBT2050,2,3,,4,36160,2.500062,-0.11102,2619.753,2849.333,25.7,
1583,1,SBT2050,2,3,,4,36454,2.49985,-0.09537,2619.753,2857.77,25.6,
1583,1,SBT2050,2,3,,4,36748,2.49994,-0.08234,2619.753,2865.025,25.5,
1583,1,SBT2050,2,3,,4,37042,2.49994,-0.0712,2619.753,2871.283,25.4,
1583,1,SBT2050,2,3,,4,37336,2.49998,-0.06284,2619.753,2876.75,25.4,
1583,1,SBT2050,2,3,,4,37630,2.500062,-0.05626,2619.753,2881.602,25.3,
1583,1,SBT2050,2,3,,4,37924,2.500074,-0.05071,2619.753,2885.972,25.3,
1583,1,SBT2050,2,3,,4,38218,2.50016,-0.046309,2619.753,2889.929,25.3,
1583,1,SBT2050,2,3,,4,38512,2.4999,-0.042043,2619.753,2893.538,25.3,
1583,1,SBT2050,2,3,,4,38806,2.49997,-0.038553,2619.753,2896.831,25.3,
1583,1,SBT2050,2,3,,4,39100,2.5,-0.035282,2619.753,2899.842,25.3,
1583,1,SBT2050,2,3,,4,39394,2.50003,-0.031919,2619.753,2902.598,25.2,
1583,1,SBT2050,2,3,,4,39688,2.49988,-0.029276,2619.753,2905.112,25.2,
1583,1,SBT2050,2,3,,4,39982,2.50003,-0.026601,2619.753,2907.401,25.1,
1583,1,SBT2050,2,3,,4,40276,2.500074,-0.024131,2619.753,2909.476,25.1,
1583,1,SBT2050,2,3,,4,40570,2.499919,-0.021947,2619.753,2911.358,25.1,
1583,1,SBT2050,2,3,,4,40864,2.5001,-0.019797,2619.753,2913.06,25.1,
1583,1,SBT2050,2,3,,4,41158,2.4999,-0.01789,2619.753,2914.6,25.1,
1583,1,SBT2050,2,3,,4,41452,2.50003,-0.016397,2619.753,2916.003,25.1,
1583,1,SBT2050,2,3,,4,41746,2.500074,-0.015136,2619.753,2917.291,25.1,
1583,1,SBT2050,2,3,,4,42040,2.50011,-0.014071,2619.753,2918.486,25.1,
1583,1,SBT2050,2,3,,4,42334,2.5,-0.013196,2619.753,2919.601,25.1,
1583,1,SBT2050,2,3,,4,42628,2.49985,-0.012249,2619.753,2920.644,25.1,
1583,1,SBT2050,2,3,,4,42922,2.49994,-0.01142,2619.753,2921.614,25.1,
1583,1,SBT2050,2,3,,4,43216,2.49998,-0.010703,2619.753,2922.514,25,
1583,1,SBT2050,2,3,,5,43509,2.5744,0,2619.753,2922.982,25,
1583,1,SBT2050,2,3,,5,43803,2.66978,0,2619.753,2922.982,25,
1583,1,SBT2050,2,3,,5,44097,2.72147,0,2619.753,2922.982,25,
1583,1,SBT2050,2,3,,5,44391,2.75212,0,2619.753,2922.982,25,
1583,1,SBT2050,2,3,,5,44685,2.77113,0,2619.753,2922.982,25,
1583,1,SBT2050,2,3,,5,44979,2.78385,0,2619.753,2922.982,25,
1583,1,SBT2050,2,3,,5,45177.477,2.78957,-9.9E-05,2619.753,2922.982,,

File: Test1586.csv
Request Year:,2018,,,,,,,,,,,,
Test:,1586,,,,,,,,,,,,
Test Description:,,,,,,,,,,,,,
TestRegime Name:,Aging_test caseB_1,,,,,,,,,,,,
TestRegime Suffix:,SHP_LC,,,,,,,,,,,,
TestRegime CellSize:,18650,,,,,,,,,,,,
TestRegime Version:,3,,,,,,,,,,,,
Number Of Cells:,1,,,,,,,,,,,,
LotID:,,,,,,,,,,,,,
Lot Description:,,,,,,,,,,,,,
Date Made:,1/21/2003 12:00 AM,,,,,,,,,,,,
Origin:,Other,,,,,,,,,,,,
Requestor:,Admin,,,,,,,,,,,,
Product ID:,Default product,,,,,,,,,,,,
Storage Temp:,R.T./AMB,,,,,,,,,,,,
Storage Delay:,0 days,,,,,,,,,,,,
Test Temp:,R.T./AMB,,,,,,,,,,,,
Start Time:,5/3/2018 2:10 AM,,,,,,,,,,,,
End Time:,5/3/2018 3:28 AM,,,,,,,,,,,,
Operator Instructions:,,,,,,,,,,,,,
Test,Cell,Rack,Shelf,Position,Cell ID,Step,Total Time (Seconds),Voltage (V),Current (A),Charge Capacity (mAh),Discharge Capacity (mAh),Trs (Â°C),
1586,1,SBT2050,2,3,,0,0.1,3.29593,0,0,0,,
1586,1,SBT2050,2,3,,0,24.6,3.29608,0,0,0,,
1586,1,SBT2050,2,3,,0,49.1,3.29607,0,0,0,,
1586,1,SBT2050,2,3,,0,73.6,3.29604,0,0,0,,
1586,1,SBT2050,2,3,,0,98.1,3.295826,0,0,0,,
1586,1,SBT2050,2,3,,0,122.6,3.295826,0,0,0,,
1586,1,SBT2050,2,3,,0,147.1,3.29592,0,0,0,,
1586,1,SBT2050,2,3,,0,171.6,3.296071,0,0,0,,
1586,1,SBT2050,2,3,,0,196.1,3.29595,0,0,0,,
1586,1,SBT2050,2,3,,0,220.6,3.29606,0,0,0,,
1586,1,SBT2050,2,3,,0,245.1,3.29587,0,0,0,,
1586,1,SBT2050,2,3,,0,269.6,3.29582,0,0,0,,
1586,1,SBT2050,2,3,,0,294.1,3.2961,0,0,0,,
1586,1,SBT2050,2,3,,0,318.6,3.2961,0,0,0,,
1586,1,SBT2050,2,3,,0,343.1,3.2959,0,0,0,,
1586,1,SBT2050,2,3,,0,367.6,3.29597,0,0,0,,
1586,1,SBT2050,2,3,,0,392.1,3.29607,0,0,0,,
1586,1,SBT2050,2,3,,0,416.6,3.29632,0,0,0,,
1586,1,SBT2050,2,3,,0,441.1,3.29608,0,0,0,,
1586,1,SBT2050,2,3,,0,465.6,3.29626,0,0,0,,
1586,1,SBT2050,2,3,,0,490.1,3.29605,0,0,0,,
1586,1,SBT2050,2,3,,0,514.6,3.29608,0,0,0,,
1586,1,SBT2050,2,3,,0,539.1,3.29622,0,0,0,,
1586,1,SBT2050,2,3,,0,563.6,3.29583,0,0,0,,
1586,1,SBT2050,2,3,,0,588.1,3.29582,0,0,0,,
1586,1,SBT2050,2,3,,0,612.6,3.295782,0,0,0,,
1586,1,SBT2050,2,3,,0,637.1,3.29585,0,0,0,,
1586,1,SBT2050,2,3,,0,661.6,3.29605,0,0,0,,
1586,1,SBT2050,2,3,,0,686.1,3.296,0,0,0,,
1586,1,SBT2050,2,3,,0,710.6,3.29609,0,0,0,,
1586,1,SBT2050,2,3,,0,735.1,3.29612,0,0,0,,
1586,1,SBT2050,2,3,,0,759.6,3.29615,0,0,0,,
1586,1,SBT2050,2,3,,0,784.1,3.29578,0,0,0,,
1586,1,SBT2050,2,3,,0,808.6,3.296124,0,0,0,,
1586,1,SBT2050,2,3,,0,833.1,3.295919,0,0,0,,
1586,1,SBT2050,2,3,,0,857.6,3.29616,0,0,0,,
1586,1,SBT2050,2,3,,0,882.1,3.296,0,0,0,,
1586,1,SBT2050,2,3,,0,906.6,3.29642,0,0,0,,
1586,1,SBT2050,2,3,,0,931.1,3.29609,0,0,0,,
1586,1,SBT2050,2,3,,0,955.6,3.29618,0,0,0,,
1586,1,SBT2050,2,3,,0,980.1,3.296006,0,0,0,,
1586,1,SBT2050,2,3,,0,1004.6,3.296038,0,0,0,,
1586,1,SBT2050,2,3,,0,1029.1,3.296047,0,0,0,,
1586,1,SBT2050,2,3,,0,1053.6,3.296179,0,0,0,,
1586,1,SBT2050,2,3,,0,1078.1,3.29606,0,0,0,,
1586,1,SBT2050,2,3,,0,1102.6,3.29589,0,0,0,,
1586,1,SBT2050,2,3,,0,1127.1,3.29597,0,0,0,,
1586,1,SBT2050,2,3,,0,1151.6,3.29587,0,0,0,,
1586,1,SBT2050,2,3,,0,1176.1,3.29574,0,0,0,,
1586,1,SBT2050,2,3,,0,1200.6,3.29583,0,0,0,,
1586,1,SBT2050,2,3,,0,1225.1,3.296343,0,0,0,,
1586,1,SBT2050,2,3,,0,1249.6,3.2962,0,0,0,,
1586,1,SBT2050,2,3,,0,1274.1,3.296148,0,0,0,,
1586,1,SBT2050,2,3,,0,1298.6,3.29613,0,0,0,,
1586,1,SBT2050,2,3,,0,1323.1,3.29606,0,0,0,,
1586,1,SBT2050,2,3,,0,1347.6,3.29617,0,0,0,,
1586,1,SBT2050,2,3,,0,1372.1,3.29608,0,0,0,,
1586,1,SBT2050,2,3,,0,1396.6,3.295944,0,0,0,,
1586,1,SBT2050,2,3,,0,1421.1,3.29598,0,0,0,,
1586,1,SBT2050,2,3,,0,1445.6,3.2959,0,0,0,,
1586,1,SBT2050,2,3,,0,1470.1,3.29595,0,0,0,,
1586,1,SBT2050,2,3,,0,1494.6,3.29626,0,0,0,,
1586,1,SBT2050,2,3,,0,1519.1,3.29608,0,0,0,,
1586,1,SBT2050,2,3,,0,1543.6,3.29588,0,0,0,,
1586,1,SBT2050,2,3,,0,1568.1,3.29586,0,0,0,,
1586,1,SBT2050,2,3,,0,1592.6,3.29614,0,0,0,,
1586,1,SBT2050,2,3,,0,1617.1,3.29625,0,0,0,,
1586,1,SBT2050,2,3,,0,1641.6,3.29602,0,0,0,,
1586,1,SBT2050,2,3,,0,1666.1,3.2961,0,0,0,,
1586,1,SBT2050,2,3,,0,1690.6,3.295819,0,0,0,,
1586,1,SBT2050,2,3,,0,1715.1,3.29597,0,0,0,,
1586,1,SBT2050,2,3,,0,1739.6,3.2961,0,0,0,,
1586,1,SBT2050,2,3,,0,1764.1,3.295926,0,0,0,,
1586,1,SBT2050,2,3,,0,1788.6,3.296141,0,0,0,,
1586,1,SBT2050,2,3,,7,1812.9,3.798472,7.233,11.827,0,,
1586,1,SBT2050,2,3,,7,1837.2,3.95505,8.329,70.289,0,,
1586,1,SBT2050,2,3,,7,1861.4,3.96722,7.751,124.29,0,,
1586,1,SBT2050,2,3,,7,1885.6,3.95936,7.282,174.722,0,,
1586,1,SBT2050,2,3,,7,1909.9,3.9449,6.909,222.562,0,,
1586,1,SBT2050,2,3,,7,1934.1,3.931498,6.645,268.104,0,,
1586,1,SBT2050,2,3,,7,1958.3,3.92172,6.446,312.092,0,,
1586,1,SBT2050,2,3,,7,1982.6,3.91573,6.291,355.084,0,,
1586,1,SBT2050,2,3,,7,2006.8,3.91248,6.162,396.946,0,,
1586,1,SBT2050,2,3,,7,2031,3.91145,6.046,438.007,0,37.6,
1586,1,SBT2050,2,3,,7,2055.2,3.911674,5.942,478.329,0,,
1586,1,SBT2050,2,3,,7,2079.5,3.91285,5.838,518.076,0,,
1586,1,SBT2050,2,3,,7,2103.7,3.91427,5.735,556.949,0,,
1586,1,SBT2050,2,3,,7,2127.9,3.91603,5.613,595.058,0,,
1586,1,SBT2050,2,3,,7,2152.2,3.918096,5.492,632.54,0,,
1586,1,SBT2050,2,3,,7,2176.4,3.92084,5.376,669.113,0,,
1586,1,SBT2050,2,3,,7,2200.6,3.92481,5.279,704.901,0,,
1586,1,SBT2050,2,3,,7,2224.9,3.92734,5.145,740.042,0,,
1586,1,SBT2050,2,3,,7,2249.1,3.9308,5.027,774.243,0,,
1586,1,SBT2050,2,3,,7,2273.3,3.9347,4.913,807.659,0,,
1586,1,SBT2050,2,3,,7,2297.6,3.93875,4.791,840.413,0,,
1586,1,SBT2050,2,3,,7,2321.8,3.942828,4.6824,872.24,0,,
1586,1,SBT2050,2,3,,7,2346,3.94662,4.5573,903.279,0,,
1586,1,SBT2050,2,3,,7,2370.2,3.9505,4.4453,933.532,0,,
1586,1,SBT2050,2,3,,7,2394.5,3.95491,4.329,963.151,0,,
1586,1,SBT2050,2,3,,7,2418.7,3.959306,4.2243,991.88,0,,
1586,1,SBT2050,2,3,,7,2442.9,3.96547,4.1571,1020.052,0,,
1586,1,SBT2050,2,3,,7,2467.2,3.97202,4.0932,1047.892,0,,
1586,1,SBT2050,2,3,,7,2491.4,3.97829,4.0215,1075.172,0,,
1586,1,SBT2050,2,3,,7,2515.6,3.98531,3.9615,1102.006,0,,
1586,1,SBT2050,2,3,,7,2539.9,3.99139,3.8906,1128.5,0,,
1586,1,SBT2050,2,3,,7,2564.1,3.9982,3.8256,1154.454,0,,
1586,1,SBT2050,2,3,,7,2588.3,4.00498,3.7692,1179.98,0,,
1586,1,SBT2050,2,3,,7,2612.6,4.011,3.7052,1205.189,0,,
1586,1,SBT2050,2,3,,7,2636.8,4.016964,3.6426,1229.88,0,,
1586,1,SBT2050,2,3,,7,2661,4.02309,3.5764,1254.135,0,,
1586,1,SBT2050,2,3,,7,2685.2,4.02938,3.5151,1278.001,0,,
1586,1,SBT2050,2,3,,7,2709.5,4.03509,3.4562,1301.516,0,,
1586,1,SBT2050,2,3,,7,2733.7,4.04084,3.3975,1324.534,0,,
1586,1,SBT2050,2,3,,7,2757.9,4.04658,3.3327,1347.142,0,,
1586,1,SBT2050,2,3,,7,2782.2,4.05164,3.2636,1369.406,0,,
1586,1,SBT2050,2,3,,7,2806.4,4.05685,3.2077,1391.158,0,,
1586,1,SBT2050,2,3,,7,2830.6,4.06245,3.1573,1412.562,0,,
1586,1,SBT2050,2,3,,7,2854.9,4.0672,3.091,1433.628,0,,
1586,1,SBT2050,2,3,,7,2879.1,4.07166,3.026,1454.183,0,,
1586,1,SBT2050,2,3,,7,2903.3,4.07653,2.9812,1474.386,0,,
1586,1,SBT2050,2,3,,7,2927.6,4.081922,2.9313,1494.324,0,,
1586,1,SBT2050,2,3,,7,2951.8,4.0867,2.88,1513.867,0,,
1586,1,SBT2050,2,3,,7,2976,4.09248,2.8439,1533.117,0,,
1586,1,SBT2050,2,3,,7,3000.2,4.09725,2.7922,1552.08,0,,
1586,1,SBT2050,2,3,,7,3024.5,4.10218,2.7456,1570.772,0,,
1586,1,SBT2050,2,3,,7,3048.7,4.10723,2.7018,1589.067,0,,
1586,1,SBT2050,2,3,,7,3072.9,4.11211,2.6642,1607.084,0,,
1586,1,SBT2050,2,3,,7,3097.2,4.11697,2.6183,1624.918,0,,
1586,1,SBT2050,2,3,,7,3121.4,4.12107,2.5693,1642.379,0,,
1586,1,SBT2050,2,3,,7,3145.6,4.1268,2.5469,1659.566,0,,
1586,1,SBT2050,2,3,,7,3169.9,4.13054,2.4967,1676.577,0,,
1586,1,SBT2050,2,3,,7,3194.1,4.1351,2.4581,1693.224,0,,
1586,1,SBT2050,2,3,,7,3218.3,4.13928,2.4178,1709.601,0,,
1586,1,SBT2050,2,3,,7,3242.6,4.143712,2.3788,1725.786,0,,
1586,1,SBT2050,2,3,,7,3266.8,4.14833,2.3443,1741.675,0,,
1586,1,SBT2050,2,3,,7,3291,4.15261,2.3097,1757.307,0,,
1586,1,SBT2050,2,3,,7,3315.2,4.156668,2.266,1772.685,0,,
1586,1,SBT2050,2,3,,7,3339.5,4.16065,2.2317,1787.887,0,,
1586,1,SBT2050,2,3,,7,3363.7,4.165354,2.2055,1802.805,0,,
1586,1,SBT2050,2,3,,7,3387.9,4.16976,2.1742,1817.502,0,,
1586,1,SBT2050,2,3,,7,3412.2,4.17415,2.141,1832.061,0,,
1586,1,SBT2050,2,3,,7,3436.4,4.17786,2.1079,1846.312,0,,
1586,1,SBT2050,2,3,,7,3460.6,4.181282,2.07,1860.343,0,,
1586,1,SBT2050,2,3,,7,3484.9,4.1858,2.0408,1874.199,0,,
1586,1,SBT2050,2,3,,7,3509.1,4.18943,2.0076,1887.804,0,,
1586,1,SBT2050,2,3,,7,3533.3,4.193258,1.9742,1901.183,0,,
1586,1,SBT2050,2,3,,7,3557.6,4.19671,1.9431,1914.403,0,,
1586,1,SBT2050,2,3,,7,3581.8,4.20103,1.917,1927.362,0,,
1586,1,SBT2050,2,3,,7,3606,4.20472,1.886,1940.116,0,,
1586,1,SBT2050,2,3,,7,3630.2,4.208656,1.8555,1952.69,0,,
1586,1,SBT2050,2,3,,7,3654.5,4.21215,1.8258,1965.118,0,,
1586,1,SBT2050,2,3,,7,3678.7,4.21611,1.8038,1977.32,0,,
1586,1,SBT2050,2,3,,7,3702.9,4.21986,1.7759,1989.336,0,,
1586,1,SBT2050,2,3,,7,3727.2,4.22328,1.7458,2001.212,0,,
1586,1,SBT2050,2,3,,7,3751.4,4.22754,1.7263,2012.881,0,,
1586,1,SBT2050,2,3,,7,3775.6,4.23101,1.6977,2024.365,0,,
1586,1,SBT2050,2,3,,7,3799.9,4.234254,1.6691,2035.714,0,,
1586,1,SBT2050,2,3,,7,3824.1,4.23765,1.6401,2046.836,0,,
1586,1,SBT2050,2,3,,7,3848.3,4.240956,1.613,2057.791,0,,
1586,1,SBT2050,2,3,,7,3872.6,4.24497,1.5949,2068.614,0,,
1586,1,SBT2050,2,3,,7,3896.8,4.2482,1.567,2079.229,0,,
1586,1,SBT2050,2,3,,7,3921,4.25186,1.5493,2089.703,0,,
1586,1,SBT2050,2,3,,7,3945.2,4.25629,1.5294,2100.048,0,,
1586,1,SBT2050,2,3,,7,3969.5,4.25891,1.5049,2110.277,0,,
1586,1,SBT2050,2,3,,7,3993.7,4.26244,1.4879,2120.336,0,,
1586,1,SBT2050,2,3,,7,4017.9,4.26591,1.4705,2130.277,0,,
1586,1,SBT2050,2,3,,7,4042.2,4.26927,1.4522,2140.128,0,,
1586,1,SBT2050,2,3,,7,4066.4,4.27197,1.4279,2149.802,0,,
1586,1,SBT2050,2,3,,7,4090.6,4.27529,1.4115,2159.344,0,,
1586,1,SBT2050,2,3,,7,4114.9,4.278038,1.3943,2168.812,0,,
1586,1,SBT2050,2,3,,7,4139.1,4.28073,1.377,2178.126,0,,
1586,1,SBT2050,2,3,,7,4163.3,4.28335,1.3601,2187.327,0,,
1586,1,SBT2050,2,3,,7,4187.6,4.28561,1.3432,2196.46,0,,
1586,1,SBT2050,2,3,,7,4211.8,4.28796,1.3301,2205.451,0,,
1586,1,SBT2050,2,3,,7,4236,4.2896,1.3144,2214.341,0,28.7,
1586,1,SBT2050,2,3,,7,4260.257,4.29102,1.303,2223.167,0,,
1586,1,SBT2050,2,3,,7,4284.5,4.29269,1.2914,2231.901,0,,
1586,1,SBT2050,2,3,,7,4308.7,4.29379,1.2813,2240.541,0,,
1586,1,SBT2050,2,3,,7,4332.9,4.2947,1.272,2249.12,0,,
1586,1,SBT2050,2,3,,7,4357.2,4.29489,1.2624,2257.673,0,,
1586,1,SBT2050,2,3,,7,4381.4,4.29501,1.2548,2266.14,0,,
1586,1,SBT2050,2,3,,7,4405.6,4.29553,1.2537,2274.571,0,,
1586,1,SBT2050,2,3,,7,4429.9,4.295438,1.2509,2283.016,0,,
1586,1,SBT2050,2,3,,7,4454.1,4.29448,1.2504,2291.409,0,,
1586,1,SBT2050,2,3,,7,4478.3,4.29343,1.2478,2299.808,0,,
1586,1,SBT2050,2,3,,7,4502.6,4.29247,1.2551,2308.255,0,,
1586,1,SBT2050,2,3,,7,4526.8,4.29105,1.2557,2316.697,0,,
1586,1,SBT2050,2,3,,7,4551,4.29118,1.2791,2325.214,0,31.1,
1586,1,SBT2050,2,3,,7,4575.3,4.29333,1.3233,2333.968,0,,
1586,1,SBT2050,2,3,,7,4599.5,4.302722,1.431,2343.2,0,,
1586,1,SBT2050,2,3,,7,4623.7,4.31934,1.5925,2353.355,0,,
1586,1,SBT2050,2,3,,7,4647.9,4.339764,1.7876,2364.724,0,,
1586,1,SBT2050,2,3,,7,4672.2,4.36651,2.0579,2377.682,0,,
1586,1,SBT2050,2,3,,7,4696.4,4.396422,2.362,2392.472,0,,
1586,1,SBT2050,2,3,,7,4698.989,4.40003,2.4076,2394.184,0,,