Folder: OR-RG_ExpRes/ORRG (part 9)

File: Test1572.csv
Request Year:,2018,,,,,,,,,,,,,,
Test:,1572,,,,,,,,,,,,,,
Test Description:,,,,,,,,,,,,,,,
TestRegime Name:,Aging_test caseB_1,,,,,,,,,,,,,,
TestRegime Suffix:,SHP_LC,,,,,,,,,,,,,,
TestRegime CellSize:,18650,,,,,,,,,,,,,,
TestRegime Version:,3,,,,,,,,,,,,,,
Number Of Cells:,1,,,,,,,,,,,,,,
LotID:,,,,,,,,,,,,,,,
Lot Description:,,,,,,,,,,,,,,,
Date Made:,1/21/2003 12:00 AM,,,,,,,,,,,,,,
Origin:,Other,,,,,,,,,,,,,,
Requestor:,Admin,,,,,,,,,,,,,,
Product ID:,Default product,,,,,,,,,,,,,,
Storage Temp:,R.T./AMB,,,,,,,,,,,,,,
Storage Delay:,0 days,,,,,,,,,,,,,,
Test Temp:,R.T./AMB,,,,,,,,,,,,,,
Start Time:,4/27/2018 9:03 AM,,,,,,,,,,,,,,
End Time:,4/27/2018 10:21 AM,,,,,,,,,,,,,,
Operator Instructions:,,,,,,,,,,,,,,,
Test,Cell,Rack,Shelf,Position,Cell ID,Step,Total Time (Seconds),Voltage (V),Current (A),Charge Capacity (mAh),Discharge Capacity (mAh),DisableTrigger (None),Iw (mA),Trs (Â°C),
1572,1,SBT2050,2,3,,0,0.1,3.315678,0,0,0,0,0,,
1572,1,SBT2050,2,3,,0,28.3,3.31571,0,0,0,0,0,,
1572,1,SBT2050,2,3,,0,56.5,3.315585,0,0,0,0,0,,
1572,1,SBT2050,2,3,,0,84.7,3.31583,0,0,0,0,0,,
1572,1,SBT2050,2,3,,0,112.9,3.31581,0,0,0,0,0,,
1572,1,SBT2050,2,3,,0,141.1,3.31562,0,0,0,0,0,,
1572,1,SBT2050,2,3,,0,169.3,3.31575,0,0,0,0,0,,
1572,1,SBT2050,2,3,,0,197.5,3.315795,0,0,0,0,0,,
1572,1,SBT2050,2,3,,0,225.7,3.31564,0,0,0,0,0,,
1572,1,SBT2050,2,3,,0,253.9,3.31574,0,0,0,0,0,,
1572,1,SBT2050,2,3,,0,282.1,3.315869,0,0,0,0,0,,
1572,1,SBT2050,2,3,,0,310.3,3.3157,0,0,0,0,0,,
1572,1,SBT2050,2,3,,0,338.5,3.31544,0,0,0,0,0,,
1572,1,SBT2050,2,3,,0,366.7,3.315647,0,0,0,0,0,,
1572,1,SBT2050,2,3,,0,394.9,3.315673,0,0,0,0,0,,
1572,1,SBT2050,2,3,,0,423.1,3.31573,0,0,0,0,0,,
1572,1,SBT2050,2,3,,0,451.3,3.31565,0,0,0,0,0,,
1572,1,SBT2050,2,3,,0,479.5,3.31579,0,0,0,0,0,,
1572,1,SBT2050,2,3,,0,507.7,3.31551,0,0,0,0,0,,
1572,1,SBT2050,2,3,,0,535.9,3.31569,0,0,0,0,0,,
1572,1,SBT2050,2,3,,0,564.1,3.31574,0,0,0,0,0,,
1572,1,SBT2050,2,3,,0,592.3,3.31571,0,0,0,0,0,,
1572,1,SBT2050,2,3,,0,620.5,3.31582,0,0,0,0,0,,
1572,1,SBT2050,2,3,,0,648.7,3.31565,0,0,0,0,0,,
1572,1,SBT2050,2,3,,0,676.9,3.315807,0,0,0,0,0,,
1572,1,SBT2050,2,3,,0,705.1,3.31559,0,0,0,0,0,,
1572,1,SBT2050,2,3,,0,733.3,3.31566,0,0,0,0,0,,
1572,1,SBT2050,2,3,,0,761.5,3.315967,0,0,0,0,0,,
1572,1,SBT2050,2,3,,0,789.7,3.31597,0,0,0,0,0,,
1572,1,SBT2050,2,3,,0,817.9,3.31607,0,0,0,0,0,,
1572,1,SBT2050,2,3,,0,846.1,3.31574,0,0,0,0,0,,
1572,1,SBT2050,2,3,,0,874.3,3.31569,0,0,0,0,0,,
1572,1,SBT2050,2,3,,0,902.5,3.31592,0,0,0,0,0,,
1572,1,SBT2050,2,3,,0,930.7,3.31595,0,0,0,0,0,,
1572,1,SBT2050,2,3,,0,958.9,3.315781,0,0,0,0,0,,
1572,1,SBT2050,2,3,,0,987.1,3.315846,0,0,0,0,0,,
1572,1,SBT2050,2,3,,0,1015.3,3.31575,0,0,0,0,0,,
1572,1,SBT2050,2,3,,0,1043.5,3.31559,0,0,0,0,0,,
1572,1,SBT2050,2,3,,0,1071.7,3.31587,0,0,0,0,0,,
1572,1,SBT2050,2,3,,0,1099.9,3.31579,0,0,0,0,0,,
1572,1,SBT2050,2,3,,0,1128.1,3.31582,0,0,0,0,0,,
1572,1,SBT2050,2,3,,0,1156.3,3.31594,0,0,0,0,0,,
1572,1,SBT2050,2,3,,0,1184.5,3.3159,0,0,0,0,0,,
1572,1,SBT2050,2,3,,0,1212.7,3.31583,0,0,0,0,0,,
1572,1,SBT2050,2,3,,0,1240.9,3.31597,0,0,0,0,0,,
1572,1,SBT2050,2,3,,0,1269.1,3.31588,0,0,0,0,0,,
1572,1,SBT2050,2,3,,0,1297.3,3.31579,0,0,0,0,0,,
1572,1,SBT2050,2,3,,0,1325.5,3.31571,0,0,0,0,0,,
1572,1,SBT2050,2,3,,0,1353.7,3.31591,0,0,0,0,0,,
1572,1,SBT2050,2,3,,0,1381.9,3.315851,0,0,0,0,0,,
1572,1,SBT2050,2,3,,0,1410.1,3.315926,0,0,0,0,0,,
1572,1,SBT2050,2,3,,0,1438.3,3.31577,0,0,0,0,0,,
1572,1,SBT2050,2,3,,0,1466.5,3.31595,0,0,0,0,0,,
1572,1,SBT2050,2,3,,0,1494.7,3.31586,0,0,0,0,0,,
1572,1,SBT2050,2,3,,0,1522.9,3.3156,0,0,0,0,0,,
1572,1,SBT2050,2,3,,0,1551.1,3.316185,0,0,0,0,0,,
1572,1,SBT2050,2,3,,0,1579.3,3.31594,0,0,0,0,0,,
1572,1,SBT2050,2,3,,0,1607.5,3.315765,0,0,0,0,0,,
1572,1,SBT2050,2,3,,0,1635.7,3.31586,0,0,0,0,0,,
1572,1,SBT2050,2,3,,0,1663.9,3.31578,0,0,0,0,0,,
1572,1,SBT2050,2,3,,0,1692.1,3.31603,0,0,0,0,0,,
1572,1,SBT2050,2,3,,0,1720.3,3.31597,0,0,0,0,0,,
1572,1,SBT2050,2,3,,0,1748.5,3.3157,0,0,0,0,0,,
1572,1,SBT2050,2,3,,0,1776.7,3.31593,0,0,0,0,0,,
1572,1,SBT2050,2,3,,7,1804.8,3.53399,2.4849,1.017,0,0,2485.21,,
1572,1,SBT2050,2,3,,7,1832.7,3.988462,8.474,60.563,0,0,8473.246,,
1572,1,SBT2050,2,3,,7,1860.6,4.009716,7.744,123.212,0,0,7746.859,,
1572,1,SBT2050,2,3,,7,1888.5,3.995262,7.209,181.11,0,0,7209.624,,
1572,1,SBT2050,2,3,,7,1916.4,3.974252,6.824,235.471,0,0,6824.709,,
1572,1,SBT2050,2,3,,7,1944.3,3.95832,6.559,287.258,0,0,6560.094,,
1572,1,SBT2050,2,3,,7,1972.2,3.94769,6.352,337.23,0,0,6353.433,,
1572,1,SBT2050,2,3,,7,2000.1,3.94204,6.186,385.789,0,0,6186.045,,
1572,1,SBT2050,2,3,,7,2027.9,3.93992,6.048,432.998,0,0,6048.402,,
1572,1,SBT2050,2,3,,7,2055.8,3.93943,5.908,479.349,0,0,5906.874,,
1572,1,SBT2050,2,3,,7,2083.7,3.94103,5.796,524.739,0,0,5795.245,,
1572,1,SBT2050,2,3,,7,2111.6,3.94341,5.663,569.158,0,0,5664.057,,
1572,1,SBT2050,2,3,,7,2139.5,3.94665,5.531,612.544,0,0,5530.442,,
1572,1,SBT2050,2,3,,7,2167.4,3.95008,5.39,654.945,0,0,5389.218,,
1572,1,SBT2050,2,3,,7,2195.3,3.954798,5.263,696.224,0,0,5263.046,,
1572,1,SBT2050,2,3,,7,2223.2,3.95937,5.123,736.471,0,0,5122.792,,
1572,1,SBT2050,2,3,,7,2251.1,3.96397,4.988,775.639,0,0,4986.574,,
1572,1,SBT2050,2,3,,7,2279,3.968514,4.844,813.737,0,0,4845.656,,
1572,1,SBT2050,2,3,,7,2306.8,3.97296,4.7085,850.627,0,0,4708.312,,
1572,1,SBT2050,2,3,,7,2334.7,3.97766,4.5795,886.632,0,0,4579.235,,
1572,1,SBT2050,2,3,,7,2362.6,3.98235,4.4463,921.615,0,0,4446.378,,
1572,1,SBT2050,2,3,,7,2390.5,3.987212,4.3113,955.583,0,0,4312.381,,
1572,1,SBT2050,2,3,,7,2418.4,3.99218,4.1964,988.537,0,0,4197.191,,
1572,1,SBT2050,2,3,,7,2446.3,3.999956,4.1328,1020.807,0,0,4132.613,,
1572,1,SBT2050,2,3,,7,2474.2,4.006988,4.0508,1052.478,0,0,4050.977,,
1572,1,SBT2050,2,3,,7,2502.1,4.01443,3.9702,1083.557,0,0,3970.929,,
1572,1,SBT2050,2,3,,7,2530,4.022096,3.8956,1114.009,0,0,3894.91,,
1572,1,SBT2050,2,3,,7,2557.9,4.029504,3.8156,1143.871,0,0,3815.58,,
1572,1,SBT2050,2,3,,7,2585.7,4.03631,3.74,1173.049,0,0,3740.027,,
1572,1,SBT2050,2,3,,7,2613.6,4.04274,3.6586,1201.718,0,0,3658.779,,
1572,1,SBT2050,2,3,,7,2641.5,4.049718,3.5871,1229.813,0,0,3587.749,,
1572,1,SBT2050,2,3,,7,2669.4,4.05608,3.5171,1257.364,0,0,3516.964,,
1572,1,SBT2050,2,3,,7,2697.3,4.06268,3.448,1284.35,0,0,3448.281,,
1572,1,SBT2050,2,3,,7,2725.2,4.068596,3.3695,1310.778,0,0,3370.058,,
1572,1,SBT2050,2,3,,7,2753.1,4.07392,3.2935,1336.595,0,0,3293.377,,
1572,1,SBT2050,2,3,,7,2781,4.07944,3.2212,1361.836,0,0,3221.086,,
1572,1,SBT2050,2,3,,7,2808.9,4.08521,3.1509,1386.541,0,0,3151.164,,
1572,1,SBT2050,2,3,,7,2836.8,4.09022,3.0782,1410.656,0,0,3078.358,,
1572,1,SBT2050,2,3,,7,2864.6,4.09463,3.0031,1434.146,0,0,3003.693,,
1572,1,SBT2050,2,3,,7,2892.5,4.100284,2.9496,1457.202,0,0,2949.578,,
1572,1,SBT2050,2,3,,7,2920.4,4.10584,2.896,1479.812,0,0,2896.294,,
1572,1,SBT2050,2,3,,7,2948.3,4.11174,2.8412,1502.051,0,0,2841.46,,
1572,1,SBT2050,2,3,,7,2976.2,4.11675,2.7818,1523.802,0,0,2781.477,,
1572,1,SBT2050,2,3,,7,3004.1,4.12231,2.7315,1545.139,0,0,2731.573,,
1572,1,SBT2050,2,3,,7,3032,4.1277,2.6838,1566.065,0,0,2683.78,32.3,
1572,1,SBT2050,2,3,,7,3059.9,4.13318,2.6322,1586.651,0,0,2632.758,,
1572,1,SBT2050,2,3,,7,3087.8,4.13805,2.581,1606.877,0,0,2581.059,,
1572,1,SBT2050,2,3,,7,3115.7,4.14305,2.5281,1626.713,0,0,2527.923,,
1572,1,SBT2050,2,3,,7,3143.6,4.14889,2.4925,1646.208,0,0,2492.852,,
1572,1,SBT2050,2,3,,7,3171.4,4.154062,2.4559,1665.291,0,0,2455.868,,
1572,1,SBT2050,2,3,,7,3199.3,4.15834,2.4034,1684.086,0,0,2403.67,,
1572,1,SBT2050,2,3,,7,3227.2,4.16413,2.3636,1702.569,0,0,2363.906,,
1572,1,SBT2050,2,3,,7,3255.1,4.16866,2.3166,1720.692,0,0,2316.431,,
1572,1,SBT2050,2,3,,7,3283,4.17333,2.2803,1738.48,0,0,2280.429,,
1572,1,SBT2050,2,3,,7,3310.9,4.17749,2.2299,1755.929,0,0,2230.386,,
1572,1,SBT2050,2,3,,7,3338.8,4.18244,2.1889,1773.063,0,0,2189.108,,
1572,1,SBT2050,2,3,,7,3366.7,4.18688,2.147,1789.878,0,0,2147.361,,
1572,1,SBT2050,2,3,,7,3394.6,4.19143,2.1111,1806.38,0,0,2111.064,,
1572,1,SBT2050,2,3,,7,3422.5,4.195878,2.0756,1822.614,0,0,2075.806,,
1572,1,SBT2050,2,3,,7,3450.3,4.20028,2.0412,1838.494,0,0,2041.195,,
1572,1,SBT2050,2,3,,7,3478.2,4.2047,2.0057,1854.15,0,0,2006.031,,
1572,1,SBT2050,2,3,,7,3506.1,4.20909,1.9661,1869.522,0,0,1965.946,,
1572,1,SBT2050,2,3,,7,3534,4.21342,1.9273,1884.61,0,0,1927.262,,
1572,1,SBT2050,2,3,,7,3561.9,4.21743,1.8915,1899.414,0,0,1891.943,,
1572,1,SBT2050,2,3,,7,3589.8,4.22125,1.8599,1913.961,0,0,1859.739,,
1572,1,SBT2050,2,3,,7,3617.7,4.22614,1.8246,1928.252,0,0,1824.982,,
1572,1,SBT2050,2,3,,7,3645.6,4.230086,1.7918,1942.286,0,0,1791.934,,
1572,1,SBT2050,2,3,,7,3673.5,4.234108,1.7588,1956.065,0,0,1758.975,,
1572,1,SBT2050,2,3,,7,3701.4,4.238154,1.7277,1969.598,0,0,1727.82,,
1572,1,SBT2050,2,3,,7,3729.2,4.24254,1.705,1982.847,0,0,1705.209,,
1572,1,SBT2050,2,3,,7,3757.1,4.24645,1.673,1995.915,0,0,1673.385,,
1572,1,SBT2050,2,3,,7,3785,4.25028,1.6417,2008.741,0,0,1641.971,,
1572,1,SBT2050,2,3,,7,3812.9,4.25362,1.6106,2021.354,0,0,1610.9,,
1572,1,SBT2050,2,3,,7,3840.8,4.25785,1.5873,2033.75,0,0,1587.319,,
1572,1,SBT2050,2,3,,7,3868.7,4.26129,1.5594,2045.926,0,0,1559.679,,
1572,1,SBT2050,2,3,,7,3896.6,4.26454,1.5296,2057.896,0,0,1529.67,,
1572,1,SBT2050,2,3,,7,3924.5,4.26868,1.5098,2069.674,0,0,1510.014,,
1572,1,SBT2050,2,3,,7,3952.4,4.27217,1.491,2081.301,0,0,1491.064,,
1572,1,SBT2050,2,3,,7,3980.3,4.27609,1.4702,2092.766,0,0,1470.486,,
1572,1,SBT2050,2,3,,7,4008.1,4.27868,1.4426,2104.003,0,0,1442.645,,
1572,1,SBT2050,2,3,,7,4036,4.28189,1.4252,2115.11,0,0,1425.109,,
1572,1,SBT2050,2,3,,7,4063.9,4.28452,1.4036,2126.064,0,0,1403.642,,
1572,1,SBT2050,2,3,,7,4091.8,4.28764,1.3837,2136.866,0,0,1383.97,,
1572,1,SBT2050,2,3,,7,4119.7,4.28998,1.3672,2147.519,0,0,1367.337,,
1572,1,SBT2050,2,3,,7,4147.6,4.29169,1.3481,2158.04,0,0,1348.01,,
1572,1,SBT2050,2,3,,7,4175.5,4.29327,1.333,2168.424,0,0,1333.222,,
1572,1,SBT2050,2,3,,7,4203.4,4.29495,1.3186,2178.691,0,0,1318.842,,
1572,1,SBT2050,2,3,,7,4231.3,4.29612,1.3055,2188.852,0,0,1305.662,,
1572,1,SBT2050,2,3,,7,4259.2,4.29688,1.2937,2198.923,0,0,1293.729,,
1572,1,SBT2050,2,3,,7,4287,4.297552,1.2828,2208.874,0,0,1282.84,,
1572,1,SBT2050,2,3,,7,4314.9,4.29823,1.2758,2218.793,0,0,1276.006,,
1572,1,SBT2050,2,3,,7,4342.8,4.298506,1.2716,2228.652,0,0,1271.68,,
1572,1,SBT2050,2,3,,7,4370.7,4.29812,1.2659,2238.47,0,0,1265.871,,
1572,1,SBT2050,2,3,,7,4398.6,4.29823,1.2627,2248.269,0,0,1262.856,,
1572,1,SBT2050,2,3,,7,4426.5,4.29826,1.2635,2258.055,0,0,1263.427,,
1572,1,SBT2050,2,3,,7,4454.4,4.297822,1.2636,2267.857,0,0,1263.876,,
1572,1,SBT2050,2,3,,7,4482.3,4.29808,1.2703,2277.678,0,0,1270.511,,
1572,1,SBT2050,2,3,,7,4510.2,4.29866,1.2814,2287.599,0,0,1281.477,,
1572,1,SBT2050,2,3,,7,4538.1,4.30167,1.3162,2297.619,0,0,1316.318,,
1572,1,SBT2050,2,3,,7,4565.925,4.31197,1.4151,2308.138,0,,1415.371,,
1572,1,SBT2050,2,3,,7,4593.8,4.3292,1.5631,2319.63,0,0,1563.151,,
1572,1,SBT2050,2,3,,7,4621.7,4.35158,1.7513,2332.41,0,0,1751.842,,
1572,1,SBT2050,2,3,,7,4649.6,4.377544,1.9604,2346.752,0,0,1960.398,,
1572,1,SBT2050,2,3,,7,4671.59,4.40003,2.1447,2359.262,0,,,,

File: Test1573.csv
Request Year:,2018,,,,,,,,,,,,
Test:,1573,,,,,,,,,,,,
Test Description:,,,,,,,,,,,,,
TestRegime Name:,Dchg_1C,,,,,,,,,,,,
TestRegime Suffix:,SHP_LC,,,,,,,,,,,,
TestRegime CellSize:,18650,,,,,,,,,,,,
TestRegime Version:,1,,,,,,,,,,,,
Number Of Cells:,1,,,,,,,,,,,,
LotID:,,,,,,,,,,,,,
Lot Description:,,,,,,,,,,,,,
Date Made:,1/21/2003 12:00 AM,,,,,,,,,,,,
Origin:,Other,,,,,,,,,,,,
Requestor:,Admin,,,,,,,,,,,,
Product ID:,Default product,,,,,,,,,,,,
Storage Temp:,R.T./AMB,,,,,,,,,,,,
Storage Delay:,0 days,,,,,,,,,,,,
Test Temp:,R.T./AMB,,,,,,,,,,,,
Start Time:,4/27/2018 10:52 AM,,,,,,,,,,,,
End Time:,4/27/2018 11:39 AM,,,,,,,,,,,,
Operator Instructions:,,,,,,,,,,,,,
Test,Cell,Rack,Shelf,Position,Cell ID,Step,Total Time (Seconds),Voltage (V),Current (A),Charge Capacity (mAh),Discharge Capacity (mAh),TC1 (Â°C),
1573,1,SBT2050,2,3,,0,1,4.0186,0,0,0,28,
1573,1,SBT2050,2,3,,0,18,4.0186,0,0,0,27.9,
1573,1,SBT2050,2,3,,0,35,4.01826,0,0,0,27.9,
1573,1,SBT2050,2,3,,0,52,4.01832,0,0,0,27.9,
1573,1,SBT2050,2,3,,1,69,3.81581,-2.6999,0,6.749,27.9,
1573,1,SBT2050,2,3,,1,86,3.784466,-2.7001,0,19.498,28,
1573,1,SBT2050,2,3,,1,103,3.767576,-2.6997,0,32.248,28.2,
1573,1,SBT2050,2,3,,1,120,3.75536,-2.6999,0,44.998,28.2,
1573,1,SBT2050,2,3,,1,137,3.74548,-2.7,0,57.748,28.3,
1573,1,SBT2050,2,3,,1,154,3.73739,-2.6996,0,70.497,28.4,
1573,1,SBT2050,2,3,,1,171,3.73013,-2.7003,0,83.247,28.5,
1573,1,SBT2050,2,3,,1,188,3.72347,-2.7002,0,95.997,28.5,
1573,1,SBT2050,2,3,,1,205,3.717618,-2.6999,0,108.747,28.6,
1573,1,SBT2050,2,3,,1,222,3.71178,-2.6998,0,121.496,28.6,
1573,1,SBT2050,2,3,,1,239,3.70628,-2.6997,0,134.246,28.7,
1573,1,SBT2050,2,3,,1,256,3.70117,-2.6998,0,146.996,28.7,
1573,1,SBT2050,2,3,,1,273,3.696,-2.7,0,159.746,28.8,
1573,1,SBT2050,2,3,,1,290,3.69095,-2.7,0,172.495,28.8,
1573,1,SBT2050,2,3,,1,307,3.68604,-2.7003,0,185.245,28.8,
1573,1,SBT2050,2,3,,1,324,3.68104,-2.7003,0,197.995,28.8,
1573,1,SBT2050,2,3,,1,341,3.67614,-2.6996,0,210.744,28.8,
1573,1,SBT2050,2,3,,1,358,3.67162,-2.7,0,223.494,28.9,
1573,1,SBT2050,2,3,,1,375,3.66725,-2.7,0,236.244,28.9,
1573,1,SBT2050,2,3,,1,392,3.66252,-2.6997,0,248.994,28.9,
1573,1,SBT2050,2,3,,1,409,3.65834,-2.6999,0,261.743,28.9,
1573,1,SBT2050,2,3,,1,426,3.6535,-2.6999,0,274.493,28.9,
1573,1,SBT2050,2,3,,1,443,3.64881,-2.6996,0,287.243,28.9,
1573,1,SBT2050,2,3,,1,460,3.64458,-2.7,0,299.993,29,
1573,1,SBT2050,2,3,,1,477,3.64017,-2.7001,0,312.742,29,
1573,1,SBT2050,2,3,,1,494,3.63586,-2.6998,0,325.492,29,
1573,1,SBT2050,2,3,,1,511,3.63102,-2.6996,0,338.242,29,
1573,1,SBT2050,2,3,,1,528,3.6267,-2.6998,0,350.992,29,
1573,1,SBT2050,2,3,,1,545,3.622162,-2.7,0,363.741,29,
1573,1,SBT2050,2,3,,1,562,3.61768,-2.7001,0,376.491,29,
1573,1,SBT2050,2,3,,1,579,3.61322,-2.6998,0,389.241,29,
1573,1,SBT2050,2,3,,1,596,3.608662,-2.6999,0,401.991,29,
1573,1,SBT2050,2,3,,1,613,3.60456,-2.6999,0,414.741,29,
1573,1,SBT2050,2,3,,1,630,3.60008,-2.6998,0,427.49,29.1,
1573,1,SBT2050,2,3,,1,647,3.59537,-2.6998,0,440.24,29,
1573,1,SBT2050,2,3,,1,664,3.59102,-2.7,0,452.99,29,
1573,1,SBT2050,2,3,,1,681,3.58668,-2.6998,0,465.74,29.1,
1573,1,SBT2050,2,3,,1,698,3.582218,-2.7001,0,478.489,29,
1573,1,SBT2050,2,3,,1,715,3.57752,-2.6998,0,491.239,29.1,
1573,1,SBT2050,2,3,,1,732,3.57301,-2.6996,0,503.989,29.1,
1573,1,SBT2050,2,3,,1,749,3.56836,-2.6995,0,516.739,29.1,
1573,1,SBT2050,2,3,,1,766,3.564044,-2.7003,0,529.488,29.1,
1573,1,SBT2050,2,3,,1,783,3.55954,-2.6998,0,542.238,29.1,
1573,1,SBT2050,2,3,,1,800,3.554738,-2.6999,0,554.988,29.1,
1573,1,SBT2050,2,3,,1,817,3.55013,-2.6999,0,567.738,29.1,
1573,1,SBT2050,2,3,,1,834,3.54526,-2.6999,0,580.487,29.1,
1573,1,SBT2050,2,3,,1,851,3.5407,-2.7003,0,593.237,29.1,
1573,1,SBT2050,2,3,,1,868,3.53608,-2.6998,0,605.987,29.1,
1573,1,SBT2050,2,3,,1,885,3.53135,-2.7001,0,618.737,29.1,
1573,1,SBT2050,2,3,,1,902,3.5269,-2.7001,0,631.486,29.1,
1573,1,SBT2050,2,3,,1,919,3.52241,-2.6998,0,644.236,29.1,
1573,1,SBT2050,2,3,,1,936,3.51744,-2.7,0,656.986,29.1,
1573,1,SBT2050,2,3,,1,953,3.51284,-2.6997,0,669.735,29.2,
1573,1,SBT2050,2,3,,1,970,3.507968,-2.7001,0,682.485,29.2,
1573,1,SBT2050,2,3,,1,987,3.50361,-2.7001,0,695.235,29.2,
1573,1,SBT2050,2,3,,1,1004,3.498928,-2.6998,0,707.984,29.2,
1573,1,SBT2050,2,3,,1,1021,3.49395,-2.6998,0,720.734,29.2,
1573,1,SBT2050,2,3,,1,1038,3.489562,-2.6998,0,733.484,29.2,
1573,1,SBT2050,2,3,,1,1055,3.48485,-2.7001,0,746.234,29.1,
1573,1,SBT2050,2,3,,1,1072,3.48,-2.6997,0,758.983,29.1,
1573,1,SBT2050,2,3,,1,1089,3.47539,-2.6999,0,771.733,29.2,
1573,1,SBT2050,2,3,,1,1106,3.47071,-2.6999,0,784.483,29.2,
1573,1,SBT2050,2,3,,1,1123,3.46623,-2.7002,0,797.233,29.2,
1573,1,SBT2050,2,3,,1,1140,3.4615,-2.7004,0,809.982,29.2,
1573,1,SBT2050,2,3,,1,1157,3.456676,-2.7001,0,822.732,29.2,
1573,1,SBT2050,2,3,,1,1174,3.45197,-2.7003,0,835.482,29.2,
1573,1,SBT2050,2,3,,1,1191,3.44755,-2.6997,0,848.232,29.2,
1573,1,SBT2050,2,3,,1,1208,3.44321,-2.7001,0,860.981,29.2,
1573,1,SBT2050,2,3,,1,1225,3.43849,-2.7,0,873.731,29.2,
1573,1,SBT2050,2,3,,1,1242,3.4337,-2.6998,0,886.481,29.2,
1573,1,SBT2050,2,3,,1,1259,3.42896,-2.6999,0,899.23,29.2,
1573,1,SBT2050,2,3,,1,1276,3.424416,-2.6996,0,911.98,29.3,
1573,1,SBT2050,2,3,,1,1293,3.41987,-2.7002,0,924.73,29.2,
1573,1,SBT2050,2,3,,1,1310,3.41552,-2.6999,0,937.48,29.2,
1573,1,SBT2050,2,3,,1,1327,3.41086,-2.6996,0,950.23,29.2,
1573,1,SBT2050,2,3,,1,1344,3.40613,-2.7002,0,962.979,29.2,
1573,1,SBT2050,2,3,,1,1361,3.40163,-2.6998,0,975.729,29.3,
1573,1,SBT2050,2,3,,1,1378,3.39695,-2.6995,0,988.479,29.3,
1573,1,SBT2050,2,3,,1,1395,3.39236,-2.7004,0,1001.229,29.3,
1573,1,SBT2050,2,3,,1,1412,3.38802,-2.6999,0,1013.978,29.2,
1573,1,SBT2050,2,3,,1,1429,3.3834,-2.6998,0,1026.728,29.3,
1573,1,SBT2050,2,3,,1,1446,3.37871,-2.6997,0,1039.478,29.3,
1573,1,SBT2050,2,3,,1,1463,3.3741,-2.6998,0,1052.228,29.3,
1573,1,SBT2050,2,3,,1,1480,3.36947,-2.7,0,1064.977,29.3,
1573,1,SBT2050,2,3,,1,1497,3.36517,-2.7,0,1077.727,29.3,
1573,1,SBT2050,2,3,,1,1514,3.36049,-2.7001,0,1090.477,29.4,
1573,1,SBT2050,2,3,,1,1531,3.35594,-2.7,0,1103.226,29.4,
1573,1,SBT2050,2,3,,1,1548,3.35122,-2.7002,0,1115.976,29.4,
1573,1,SBT2050,2,3,,1,1565,3.346547,-2.6997,0,1128.726,29.4,
1573,1,SBT2050,2,3,,1,1582,3.34177,-2.7,0,1141.476,29.4,
1573,1,SBT2050,2,3,,1,1599,3.33694,-2.6998,0,1154.225,29.4,
1573,1,SBT2050,2,3,,1,1616,3.33245,-2.6995,0,1166.975,29.5,
1573,1,SBT2050,2,3,,1,1633,3.32758,-2.7001,0,1179.725,29.4,
1573,1,SBT2050,2,3,,1,1650,3.32283,-2.7,0,1192.474,29.4,
1573,1,SBT2050,2,3,,1,1667,3.31787,-2.6998,0,1205.224,29.5,
1573,1,SBT2050,2,3,,1,1684,3.31303,-2.7,0,1217.974,29.5,
1573,1,SBT2050,2,3,,1,1701,3.308296,-2.7001,0,1230.723,29.5,
1573,1,SBT2050,2,3,,1,1718,3.30319,-2.7001,0,1243.473,29.5,
1573,1,SBT2050,2,3,,1,1735,3.29828,-2.6997,0,1256.223,29.5,
1573,1,SBT2050,2,3,,1,1752,3.29333,-2.7,0,1268.973,29.5,
1573,1,SBT2050,2,3,,1,1769,3.28854,-2.6999,0,1281.722,29.6,
1573,1,SBT2050,2,3,,1,1786,3.28337,-2.6998,0,1294.472,29.6,
1573,1,SBT2050,2,3,,1,1803,3.27808,-2.7001,0,1307.222,29.6,
1573,1,SBT2050,2,3,,1,1820,3.27312,-2.7002,0,1319.971,29.6,
1573,1,SBT2050,2,3,,1,1837,3.26791,-2.6992,0,1332.721,29.7,
1573,1,SBT2050,2,3,,1,1854,3.26225,-2.7001,0,1345.471,29.7,
1573,1,SBT2050,2,3,,1,1871,3.25696,-2.7001,0,1358.221,29.7,
1573,1,SBT2050,2,3,,1,1888,3.25179,-2.7,0,1370.97,29.7,
1573,1,SBT2050,2,3,,1,1905,3.24593,-2.7003,0,1383.72,29.8,
1573,1,SBT2050,2,3,,1,1922,3.240198,-2.7002,0,1396.47,29.8,
1573,1,SBT2050,2,3,,1,1939,3.2346,-2.6998,0,1409.22,29.9,
1573,1,SBT2050,2,3,,1,1956,3.22838,-2.6998,0,1421.97,29.9,
1573,1,SBT2050,2,3,,1,1973,3.22277,-2.7006,0,1434.719,29.9,
1573,1,SBT2050,2,3,,1,1990,3.216758,-2.6998,0,1447.469,29.9,
1573,1,SBT2050,2,3,,1,2007,3.21054,-2.7001,0,1460.219,29.9,
1573,1,SBT2050,2,3,,1,2024,3.2044,-2.6998,0,1472.969,30,
1573,1,SBT2050,2,3,,1,2041,3.19802,-2.7003,0,1485.718,30,
1573,1,SBT2050,2,3,,1,2058,3.19174,-2.6997,0,1498.468,30.1,
1573,1,SBT2050,2,3,,1,2075,3.18507,-2.7001,0,1511.218,30.1,
1573,1,SBT2050,2,3,,1,2092,3.178491,-2.6997,0,1523.967,30.1,
1573,1,SBT2050,2,3,,1,2109,3.17125,-2.7001,0,1536.717,30.2,
1573,1,SBT2050,2,3,,1,2126,3.164141,-2.6999,0,1549.467,30.2,
1573,1,SBT2050,2,3,,1,2143,3.157,-2.6999,0,1562.217,30.2,
1573,1,SBT2050,2,3,,1,2160,3.14948,-2.6998,0,1574.967,30.3,
1573,1,SBT2050,2,3,,1,2177,3.14209,-2.6998,0,1587.716,30.3,
1573,1,SBT2050,2,3,,1,2194,3.13431,-2.7001,0,1600.466,30.4,
1573,1,SBT2050,2,3,,1,2211,3.1261,-2.6996,0,1613.216,30.4,
1573,1,SBT2050,2,3,,1,2228,3.11801,-2.7,0,1625.965,30.4,
1573,1,SBT2050,2,3,,1,2245,3.10963,-2.6997,0,1638.715,30.5,
1573,1,SBT2050,2,3,,1,2262,3.10133,-2.7,0,1651.465,30.6,
1573,1,SBT2050,2,3,,1,2279,3.09229,-2.7001,0,1664.215,30.7,
1573,1,SBT2050,2,3,,1,2296,3.08327,-2.7001,0,1676.964,30.7,
1573,1,SBT2050,2,3,,1,2313,3.07416,-2.7002,0,1689.714,30.8,
1573,1,SBT2050,2,3,,1,2330,3.0644,-2.6999,0,1702.464,30.8,
1573,1,SBT2050,2,3,,1,2347,3.054596,-2.6998,0,1715.214,30.9,
1573,1,SBT2050,2,3,,1,2364,3.04464,-2.6998,0,1727.963,31,
1573,1,SBT2050,2,3,,1,2381,3.033769,-2.6998,0,1740.713,31,
1573,1,SBT2050,2,3,,1,2398,3.02281,-2.7001,0,1753.463,31.1,
1573,1,SBT2050,2,3,,1,2415,3.01137,-2.7002,0,1766.212,31.2,
1573,1,SBT2050,2,3,,1,2432,2.999846,-2.7003,0,1778.962,31.3,
1573,1,SBT2050,2,3,,1,2449,2.98766,-2.7001,0,1791.712,31.3,
1573,1,SBT2050,2,3,,1,2466,2.97474,-2.6997,0,1804.462,31.4,
1573,1,SBT2050,2,3,,1,2483,2.96139,-2.6999,0,1817.212,31.5,
1573,1,SBT2050,2,3,,1,2500,2.94736,-2.7002,0,1829.961,31.6,
1573,1,SBT2050,2,3,,1,2517,2.932911,-2.7004,0,1842.711,31.7,
1573,1,SBT2050,2,3,,1,2534,2.9179,-2.7,0,1855.461,31.8,
1573,1,SBT2050,2,3,,1,2551,2.90134,-2.7001,0,1868.211,31.9,
1573,1,SBT2050,2,3,,1,2568,2.88392,-2.7002,0,1880.96,32,
1573,1,SBT2050,2,3,,1,2585,2.86547,-2.7003,0,1893.71,32.2,
1573,1,SBT2050,2,3,,1,2602,2.84549,-2.7001,0,1906.46,32.3,
1573,1,SBT2050,2,3,,1,2619,2.823769,-2.7002,0,1919.21,32.4,
1573,1,SBT2050,2,3,,1,2636,2.80019,-2.7003,0,1931.959,32.6,
1573,1,SBT2050,2,3,,1,2653,2.77383,-2.7,0,1944.709,32.7,
1573,1,SBT2050,2,3,,1,2670,2.74554,-2.6997,0,1957.459,32.9,
1573,1,SBT2050,2,3,,1,2687,2.71441,-2.7,0,1970.208,33.1,
1573,1,SBT2050,2,3,,1,2704,2.67998,-2.7001,0,1982.958,33.2,
1573,1,SBT2050,2,3,,1,2721,2.64196,-2.7001,0,1995.708,33.4,
1573,1,SBT2050,2,3,,1,2738,2.59881,-2.7005,0,2008.458,33.7,
1573,1,SBT2050,2,3,,1,2755,2.54946,-2.6999,0,2021.208,33.9,
1573,1,SBT2050,2,3,,2,2771,2.80375,0,0,2032.283,34.2,
1573,1,SBT2050,2,3,,2,2788,3.181884,0,0,2032.283,34,
1573,1,SBT2050,2,3,,2,2805,3.23622,0,0,2032.283,33.6,
1573,1,SBT2050,2,3,,2,2822,3.26569,0,0,2032.283,33.1,
1573,1,SBT2050,2,3,,2,2829.766,3.275028,-9.9E-05,0,2032.283,,