Folder: OR-RG_ExpRes/ORRG (part 10)

File: Test1575.csv
Request Year:,2018,,,,,,,,,,,,
Test:,1575,,,,,,,,,,,,
Test Description:,,,,,,,,,,,,,
TestRegime Name:,Aging_test caseB_1,,,,,,,,,,,,
TestRegime Suffix:,SHP_LC,,,,,,,,,,,,
TestRegime CellSize:,18650,,,,,,,,,,,,
TestRegime Version:,3,,,,,,,,,,,,
Number Of Cells:,1,,,,,,,,,,,,
LotID:,,,,,,,,,,,,,
Lot Description:,,,,,,,,,,,,,
Date Made:,1/21/2003 12:00 AM,,,,,,,,,,,,
Origin:,Other,,,,,,,,,,,,
Requestor:,Admin,,,,,,,,,,,,
Product ID:,Default product,,,,,,,,,,,,
Storage Temp:,R.T./AMB,,,,,,,,,,,,
Storage Delay:,0 days,,,,,,,,,,,,
Test Temp:,R.T./AMB,,,,,,,,,,,,
Start Time:,4/27/2018 7:44 PM,,,,,,,,,,,,
End Time:,4/27/2018 9:03 PM,,,,,,,,,,,,
Operator Instructions:,,,,,,,,,,,,,
Test,Cell,Rack,Shelf,Position,Cell ID,Step,Total Time (Seconds),Voltage (V),Current (A),Charge Capacity (mAh),Discharge Capacity (mAh),Trs (Â°C),
1575,1,SBT2050,2,3,,0,0.1,3.314703,0,0,0,,
1575,1,SBT2050,2,3,,0,24.8,3.31462,0,0,0,,
1575,1,SBT2050,2,3,,0,49.5,3.31474,0,0,0,,
1575,1,SBT2050,2,3,,0,74.2,3.31483,0,0,0,,
1575,1,SBT2050,2,3,,0,98.9,3.31471,0,0,0,,
1575,1,SBT2050,2,3,,0,123.6,3.31476,0,0,0,,
1575,1,SBT2050,2,3,,0,148.3,3.31483,0,0,0,,
1575,1,SBT2050,2,3,,0,173,3.31501,0,0,0,,
1575,1,SBT2050,2,3,,0,197.7,3.315106,0,0,0,,
1575,1,SBT2050,2,3,,0,222.4,3.31507,0,0,0,,
1575,1,SBT2050,2,3,,0,247.1,3.31479,0,0,0,,
1575,1,SBT2050,2,3,,0,271.8,3.31466,0,0,0,,
1575,1,SBT2050,2,3,,0,296.5,3.314994,0,0,0,,
1575,1,SBT2050,2,3,,0,321.2,3.31503,0,0,0,,
1575,1,SBT2050,2,3,,0,345.9,3.31498,0,0,0,,
1575,1,SBT2050,2,3,,0,370.6,3.315051,0,0,0,,
1575,1,SBT2050,2,3,,0,395.3,3.3148,0,0,0,,
1575,1,SBT2050,2,3,,0,420,3.31469,0,0,0,24.8,
1575,1,SBT2050,2,3,,0,444.7,3.314703,0,0,0,,
1575,1,SBT2050,2,3,,0,469.4,3.31471,0,0,0,,
1575,1,SBT2050,2,3,,0,494.1,3.31484,0,0,0,,
1575,1,SBT2050,2,3,,0,518.8,3.31476,0,0,0,,
1575,1,SBT2050,2,3,,0,543.5,3.31472,0,0,0,,
1575,1,SBT2050,2,3,,0,568.2,3.31494,0,0,0,,
1575,1,SBT2050,2,3,,0,592.9,3.31494,0,0,0,,
1575,1,SBT2050,2,3,,0,617.6,3.314796,0,0,0,,
1575,1,SBT2050,2,3,,0,642.3,3.3148,0,0,0,,
1575,1,SBT2050,2,3,,0,667,3.31504,0,0,0,,
1575,1,SBT2050,2,3,,0,691.7,3.31495,0,0,0,,
1575,1,SBT2050,2,3,,0,716.4,3.3148,0,0,0,,
1575,1,SBT2050,2,3,,0,741.1,3.31487,0,0,0,,
1575,1,SBT2050,2,3,,0,765.8,3.31493,0,0,0,,
1575,1,SBT2050,2,3,,0,790.5,3.31485,0,0,0,,
1575,1,SBT2050,2,3,,0,815.2,3.31491,0,0,0,,
1575,1,SBT2050,2,3,,0,839.9,3.31516,0,0,0,,
1575,1,SBT2050,2,3,,0,864.6,3.31488,0,0,0,,
1575,1,SBT2050,2,3,,0,889.3,3.31504,0,0,0,,
1575,1,SBT2050,2,3,,0,914,3.314949,0,0,0,,
1575,1,SBT2050,2,3,,0,938.7,3.314964,0,0,0,,
1575,1,SBT2050,2,3,,0,963.4,3.31503,0,0,0,,
1575,1,SBT2050,2,3,,0,988.1,3.3148,0,0,0,,
1575,1,SBT2050,2,3,,0,1012.8,3.31475,0,0,0,,
1575,1,SBT2050,2,3,,0,1037.5,3.31513,0,0,0,,
1575,1,SBT2050,2,3,,0,1062.2,3.31482,0,0,0,,
1575,1,SBT2050,2,3,,0,1086.9,3.31498,0,0,0,,
1575,1,SBT2050,2,3,,0,1111.6,3.31523,0,0,0,,
1575,1,SBT2050,2,3,,0,1136.3,3.31508,0,0,0,,
1575,1,SBT2050,2,3,,0,1161,3.31491,0,0,0,,
1575,1,SBT2050,2,3,,0,1185.7,3.315154,0,0,0,,
1575,1,SBT2050,2,3,,0,1210.4,3.31501,0,0,0,,
1575,1,SBT2050,2,3,,0,1235.1,3.31485,0,0,0,,
1575,1,SBT2050,2,3,,0,1259.8,3.31479,0,0,0,,
1575,1,SBT2050,2,3,,0,1284.5,3.3149,0,0,0,,
1575,1,SBT2050,2,3,,0,1309.2,3.31508,0,0,0,,
1575,1,SBT2050,2,3,,0,1333.9,3.31515,0,0,0,,
1575,1,SBT2050,2,3,,0,1358.6,3.31498,0,0,0,,
1575,1,SBT2050,2,3,,0,1383.3,3.315018,0,0,0,,
1575,1,SBT2050,2,3,,0,1408,3.31516,0,0,0,,
1575,1,SBT2050,2,3,,0,1432.7,3.31492,0,0,0,,
1575,1,SBT2050,2,3,,0,1457.4,3.31511,0,0,0,,
1575,1,SBT2050,2,3,,0,1482.1,3.31515,0,0,0,,
1575,1,SBT2050,2,3,,0,1506.8,3.31522,0,0,0,,
1575,1,SBT2050,2,3,,0,1531.5,3.31533,0,0,0,,
1575,1,SBT2050,2,3,,0,1556.2,3.31515,0,0,0,,
1575,1,SBT2050,2,3,,0,1580.9,3.31513,0,0,0,,
1575,1,SBT2050,2,3,,0,1605.6,3.31477,0,0,0,,
1575,1,SBT2050,2,3,,0,1630.3,3.3149,0,0,0,,
1575,1,SBT2050,2,3,,0,1655,3.31509,0,0,0,,
1575,1,SBT2050,2,3,,0,1679.7,3.31497,0,0,0,,
1575,1,SBT2050,2,3,,0,1704.4,3.31514,0,0,0,,
1575,1,SBT2050,2,3,,0,1729.1,3.31508,0,0,0,,
1575,1,SBT2050,2,3,,0,1753.8,3.31516,0,0,0,,
1575,1,SBT2050,2,3,,0,1778.5,3.31487,0,0,0,,
1575,1,SBT2050,2,3,,7,1803.1,3.39272,0.8288,0.181,0,,
1575,1,SBT2050,2,3,,7,1827.6,3.98603,9.011,48.078,0,,
1575,1,SBT2050,2,3,,7,1852,4.00298,7.953,104.411,0,28.8,
1575,1,SBT2050,2,3,,7,1876.4,3.998924,7.423,156.454,0,,
1575,1,SBT2050,2,3,,7,1900.9,3.98218,7.031,205.592,0,,
1575,1,SBT2050,2,3,,7,1925.3,3.9657,6.732,252.158,0,,
1575,1,SBT2050,2,3,,7,1949.7,3.95297,6.498,296.95,0,,
1575,1,SBT2050,2,3,,7,1974.1,3.945294,6.335,340.404,0,,
1575,1,SBT2050,2,3,,7,1998.6,3.94045,6.192,383.027,0,,
1575,1,SBT2050,2,3,,7,2023,3.93847,6.063,424.599,0,,
1575,1,SBT2050,2,3,,7,2047.4,3.93799,5.952,465.331,0,,
1575,1,SBT2050,2,3,,7,2071.9,3.93916,5.856,505.488,0,,
1575,1,SBT2050,2,3,,7,2096.3,3.94022,5.73,544.754,0,,
1575,1,SBT2050,2,3,,7,2120.7,3.94284,5.619,583.207,0,,
1575,1,SBT2050,2,3,,7,2145.1,3.94592,5.496,620.886,0,,
1575,1,SBT2050,2,3,,7,2169.6,3.949996,5.39,657.919,0,,
1575,1,SBT2050,2,3,,7,2194,3.95356,5.262,694.006,0,,
1575,1,SBT2050,2,3,,7,2218.4,3.957316,5.133,729.27,0,,
1575,1,SBT2050,2,3,,7,2242.9,3.96197,5.024,763.854,0,,
1575,1,SBT2050,2,3,,7,2267.3,3.96617,4.911,797.5,0,,
1575,1,SBT2050,2,3,,7,2291.7,3.97015,4.785,830.325,0,,
1575,1,SBT2050,2,3,,7,2316.1,3.97442,4.665,862.359,0,,
1575,1,SBT2050,2,3,,7,2340.6,3.97867,4.5458,893.703,0,,
1575,1,SBT2050,2,3,,7,2365,3.98298,4.4317,924.129,0,,
1575,1,SBT2050,2,3,,7,2389.4,3.98718,4.3207,953.786,0,,
1575,1,SBT2050,2,3,,7,2413.9,3.99128,4.2128,982.798,0,,
1575,1,SBT2050,2,3,,7,2438.3,3.99782,4.1521,1011.121,0,,
1575,1,SBT2050,2,3,,7,2462.7,4.00439,4.0848,1039.008,0,,
1575,1,SBT2050,2,3,,7,2487.1,4.01064,4.0045,1066.413,0,,
1575,1,SBT2050,2,3,,7,2511.6,4.01742,3.9428,1093.455,0,,
1575,1,SBT2050,2,3,,7,2536,4.02393,3.8772,1119.929,0,,
1575,1,SBT2050,2,3,,7,2560.4,4.03007,3.8039,1145.947,0,,
1575,1,SBT2050,2,3,,7,2584.9,4.03674,3.7409,1171.618,0,,
1575,1,SBT2050,2,3,,7,2609.3,4.04211,3.6703,1196.724,0,,
1575,1,SBT2050,2,3,,7,2633.7,4.04838,3.6051,1221.382,0,,
1575,1,SBT2050,2,3,,7,2658.1,4.054104,3.5429,1245.614,0,,
1575,1,SBT2050,2,3,,7,2682.6,4.05979,3.4762,1269.52,0,,
1575,1,SBT2050,2,3,,7,2707,4.06544,3.416,1292.889,0,,
1575,1,SBT2050,2,3,,7,2731.4,4.0705,3.3483,1315.811,0,,
1575,1,SBT2050,2,3,,7,2755.9,4.07533,3.2775,1338.36,0,,
1575,1,SBT2050,2,3,,7,2780.3,4.08058,3.2236,1360.382,0,,
1575,1,SBT2050,2,3,,7,2804.7,4.08477,3.1502,1381.973,0,,
1575,1,SBT2050,2,3,,7,2829.1,4.08937,3.0892,1403.125,0,,
1575,1,SBT2050,2,3,,7,2853.6,4.093618,3.026,1423.929,0,,
1575,1,SBT2050,2,3,,7,2878,4.09786,2.9648,1444.245,0,,
1575,1,SBT2050,2,3,,7,2902.4,4.10333,2.9255,1464.216,0,,
1575,1,SBT2050,2,3,,7,2926.9,4.10808,2.8782,1483.887,0,,
1575,1,SBT2050,2,3,,7,2951.3,4.11326,2.829,1503.188,0,,
1575,1,SBT2050,2,3,,7,2975.7,4.11776,2.7756,1522.141,0,,
1575,1,SBT2050,2,3,,7,3000.1,4.12281,2.7296,1540.857,0,,
1575,1,SBT2050,2,3,,7,3024.6,4.12787,2.6922,1559.32,0,,
1575,1,SBT2050,2,3,,7,3049,4.13183,2.6401,1577.413,0,,
1575,1,SBT2050,2,3,,7,3073.4,4.13709,2.6087,1595.176,0,,
1575,1,SBT2050,2,3,,7,3097.9,4.141536,2.5569,1612.745,0,,
1575,1,SBT2050,2,3,,7,3122.3,4.14569,2.513,1629.94,0,,
1575,1,SBT2050,2,3,,7,3146.7,4.15035,2.4746,1646.845,0,,
1575,1,SBT2050,2,3,,7,3171.1,4.15495,2.4404,1663.505,0,,
1575,1,SBT2050,2,3,,7,3195.6,4.159574,2.3968,1679.97,0,,
1575,1,SBT2050,2,3,,7,3220,4.163808,2.3618,1696.116,0,,
1575,1,SBT2050,2,3,,7,3244.4,4.168164,2.3265,1711.999,0,,
1575,1,SBT2050,2,3,,7,3268.9,4.17207,2.2835,1727.681,0,,
1575,1,SBT2050,2,3,,7,3293.3,4.17676,2.2487,1743.053,0,,
1575,1,SBT2050,2,3,,7,3317.7,4.18055,2.2122,1758.162,0,,
1575,1,SBT2050,2,3,,7,3342.1,4.18469,2.1801,1773.056,0,,
1575,1,SBT2050,2,3,,7,3366.6,4.18874,2.1472,1787.762,0,,
1575,1,SBT2050,2,3,,7,3391,4.19304,2.1087,1802.187,0,,
1575,1,SBT2050,2,3,,7,3415.4,4.196444,2.0703,1816.352,0,,
1575,1,SBT2050,2,3,,7,3439.9,4.20025,2.0392,1830.359,0,,
1575,1,SBT2050,2,3,,7,3464.3,4.2043,2.0076,1844.08,0,,
1575,1,SBT2050,2,3,,7,3488.7,4.208006,1.9732,1857.579,0,,
1575,1,SBT2050,2,3,,7,3513.1,4.211824,1.942,1870.861,0,,
1575,1,SBT2050,2,3,,7,3537.6,4.215408,1.91,1883.989,0,,
1575,1,SBT2050,2,3,,7,3562,4.21929,1.8797,1896.846,0,,
1575,1,SBT2050,2,3,,7,3586.4,4.22306,1.8497,1909.505,0,,
1575,1,SBT2050,2,3,,7,3610.9,4.22671,1.819,1922.008,0,,
1575,1,SBT2050,2,3,,7,3635.3,4.23081,1.7993,1934.266,0,,
1575,1,SBT2050,2,3,,7,3659.7,4.234298,1.7681,1946.349,0,,
1575,1,SBT2050,2,3,,7,3684.1,4.23789,1.7383,1958.221,0,,
1575,1,SBT2050,2,3,,7,3708.6,4.24121,1.7079,1969.949,0,,
1575,1,SBT2050,2,3,,7,3733,4.24487,1.68,1981.45,0,,
1575,1,SBT2050,2,3,,7,3757.4,4.248076,1.6503,1992.754,0,,
1575,1,SBT2050,2,3,,7,3781.9,4.25162,1.627,2003.91,0,,
1575,1,SBT2050,2,3,,7,3806.3,4.25535,1.6031,2014.838,0,,
1575,1,SBT2050,2,3,,7,3830.7,4.25817,1.574,2025.601,0,,
1575,1,SBT2050,2,3,,7,3855.1,4.26223,1.5549,2036.213,0,,
1575,1,SBT2050,2,3,,7,3879.6,4.265502,1.5288,2046.682,0,,
1575,1,SBT2050,2,3,,7,3904,4.269534,1.5122,2056.989,0,,
1575,1,SBT2050,2,3,,7,3928.4,4.27214,1.4842,2067.147,0,,
1575,1,SBT2050,2,3,,7,3952.9,4.27607,1.4681,2077.193,0,,
1575,1,SBT2050,2,3,,7,3977.3,4.27912,1.442,2087.07,0,,
1575,1,SBT2050,2,3,,7,4001.7,4.28155,1.4178,2096.777,0,,
1575,1,SBT2050,2,3,,7,4026.1,4.28534,1.4059,2106.338,0,,
1575,1,SBT2050,2,3,,7,4050.6,4.28861,1.3824,2115.815,0,,
1575,1,SBT2050,2,3,,7,4075,4.29133,1.3672,2125.13,0,,
1575,1,SBT2050,2,3,,7,4099.4,4.29458,1.351,2134.324,0,,
1575,1,SBT2050,2,3,,7,4123.9,4.29613,1.3265,2143.423,0,,
1575,1,SBT2050,2,3,,7,4148.3,4.29894,1.3121,2152.365,0,,
1575,1,SBT2050,2,3,,7,4172.7,4.30124,1.2969,2161.207,0,,
1575,1,SBT2050,2,3,,7,4197.1,4.30424,1.2878,2169.981,0,,
1575,1,SBT2050,2,3,,7,4221.6,4.30593,1.2712,2178.691,0,,
1575,1,SBT2050,2,3,,7,4246,4.307682,1.2586,2187.263,0,,
1575,1,SBT2050,2,3,,7,4270.4,4.30895,1.2436,2195.742,0,,
1575,1,SBT2050,2,3,,7,4294.9,4.31046,1.2316,2204.169,0,,
1575,1,SBT2050,2,3,,7,4319.3,4.31172,1.2212,2212.482,0,,
1575,1,SBT2050,2,3,,7,4343.7,4.31212,1.2081,2220.722,0,,
1575,1,SBT2050,2,3,,7,4368.1,4.31308,1.1989,2228.888,0,,
1575,1,SBT2050,2,3,,7,4392.6,4.31352,1.1902,2237.026,0,,
1575,1,SBT2050,2,3,,7,4417,4.31391,1.1851,2245.084,0,,
1575,1,SBT2050,2,3,,7,4441.4,4.31404,1.1786,2253.099,0,,
1575,1,SBT2050,2,3,,7,4465.9,4.314662,1.1751,2261.115,0,,
1575,1,SBT2050,2,3,,7,4490.3,4.31453,1.1727,2269.075,0,,
1575,1,SBT2050,2,3,,7,4514.7,4.31455,1.1728,2277.019,0,,
1575,1,SBT2050,2,3,,7,4539.1,4.31413,1.1707,2284.96,0,,
1575,1,SBT2050,2,3,,7,4563.6,4.31397,1.1704,2292.935,0,,
1575,1,SBT2050,2,3,,7,4588,4.314166,1.1718,2300.89,0,,
1575,1,SBT2050,2,3,,7,4612.4,4.31471,1.18,2308.87,0,,
1575,1,SBT2050,2,3,,7,4636.9,4.315228,1.1863,2316.92,0,,
1575,1,SBT2050,2,3,,7,4661.3,4.31733,1.2113,2325.026,0,,
1575,1,SBT2050,2,3,,7,4685.7,4.32437,1.2752,2333.451,0,,
1575,1,SBT2050,2,3,,7,4710.1,4.33514,1.3617,2342.353,0,,
1575,1,SBT2050,2,3,,7,4726.842,4.34608,1.4478,2348.883,0,,

File: Test1576.csv
Request Year:,2018,,,,,,,,,,,,
Test:,1576,,,,,,,,,,,,
Test Description:,,,,,,,,,,,,,
TestRegime Name:,Dchg_1C,,,,,,,,,,,,
TestRegime Suffix:,SHP_LC,,,,,,,,,,,,
TestRegime CellSize:,18650,,,,,,,,,,,,
TestRegime Version:,1,,,,,,,,,,,,
Number Of Cells:,1,,,,,,,,,,,,
LotID:,,,,,,,,,,,,,
Lot Description:,,,,,,,,,,,,,
Date Made:,1/21/2003 12:00 AM,,,,,,,,,,,,
Origin:,Other,,,,,,,,,,,,
Requestor:,Admin,,,,,,,,,,,,
Product ID:,Default product,,,,,,,,,,,,
Storage Temp:,R.T./AMB,,,,,,,,,,,,
Storage Delay:,0 days,,,,,,,,,,,,
Test Temp:,R.T./AMB,,,,,,,,,,,,
Start Time:,4/27/2018 9:06 PM,,,,,,,,,,,,
End Time:,4/27/2018 9:55 PM,,,,,,,,,,,,
Operator Instructions:,,,,,,,,,,,,,
Test,Cell,Rack,Shelf,Position,Cell ID,Step,Total Time (Seconds),Voltage (V),Current (A),Charge Capacity (mAh),Discharge Capacity (mAh),TC1 (Â°C),
1576,1,SBT2050,2,3,,0,1,4.111568,0,0,0,32.1,
1576,1,SBT2050,2,3,,0,19,4.10778,0,0,0,32.1,
1576,1,SBT2050,2,3,,0,37,4.1038,0,0,0,32.1,
1576,1,SBT2050,2,3,,0,55,4.10016,0,0,0,32.1,
1576,1,SBT2050,2,3,,1,73,3.88908,-2.6999,0,9.749,32.1,
1576,1,SBT2050,2,3,,1,91,3.86021,-2.6999,0,23.248,32.2,
1576,1,SBT2050,2,3,,1,109,3.84287,-2.6999,0,36.748,32.2,
1576,1,SBT2050,2,3,,1,127,3.82986,-2.7005,0,50.248,32.2,
1576,1,SBT2050,2,3,,1,145,3.81972,-2.7001,0,63.748,32.2,
1576,1,SBT2050,2,3,,1,163,3.810664,-2.7002,0,77.248,32.1,
1576,1,SBT2050,2,3,,1,181,3.802792,-2.7001,0,90.747,32,
1576,1,SBT2050,2,3,,1,199,3.79537,-2.7003,0,104.247,31.8,
1576,1,SBT2050,2,3,,1,217,3.78842,-2.6998,0,117.747,31.7,
1576,1,SBT2050,2,3,,1,235,3.78175,-2.6999,0,131.247,31.6,
1576,1,SBT2050,2,3,,1,253,3.77531,-2.6997,0,144.746,31.5,
1576,1,SBT2050,2,3,,1,271,3.76865,-2.7,0,158.246,31.3,
1576,1,SBT2050,2,3,,1,289,3.76228,-2.7003,0,171.746,31.3,
1576,1,SBT2050,2,3,,1,307,3.75611,-2.7001,0,185.245,31.1,
1576,1,SBT2050,2,3,,1,325,3.749968,-2.6999,0,198.745,31,
1576,1,SBT2050,2,3,,1,343,3.74393,-2.7003,0,212.245,30.9,
1576,1,SBT2050,2,3,,1,361,3.738,-2.7001,0,225.745,30.7,
1576,1,SBT2050,2,3,,1,379,3.731868,-2.7,0,239.245,30.6,
1576,1,SBT2050,2,3,,1,397,3.72577,-2.6998,0,252.744,30.6,
1576,1,SBT2050,2,3,,1,415,3.719812,-2.6996,0,266.244,30.5,
1576,1,SBT2050,2,3,,1,433,3.71414,-2.7002,0,279.744,30.3,
1576,1,SBT2050,2,3,,1,451,3.70829,-2.6997,0,293.243,30.3,
1576,1,SBT2050,2,3,,1,469,3.70273,-2.6995,0,306.743,30.2,
1576,1,SBT2050,2,3,,1,487,3.69697,-2.6997,0,320.243,30.1,
1576,1,SBT2050,2,3,,1,505,3.69132,-2.7004,0,333.742,30,
1576,1,SBT2050,2,3,,1,523,3.68584,-2.6998,0,347.242,29.9,
1576,1,SBT2050,2,3,,1,541,3.68021,-2.6998,0,360.742,29.9,
1576,1,SBT2050,2,3,,1,559,3.674434,-2.6998,0,374.242,29.8,
1576,1,SBT2050,2,3,,1,577,3.668678,-2.7002,0,387.741,29.7,
1576,1,SBT2050,2,3,,1,595,3.663228,-2.7001,0,401.241,29.6,
1576,1,SBT2050,2,3,,1,613,3.65803,-2.6998,0,414.741,29.6,
1576,1,SBT2050,2,3,,1,631,3.652756,-2.7,0,428.24,29.5,
1576,1,SBT2050,2,3,,1,649,3.647238,-2.6998,0,441.74,29.5,
1576,1,SBT2050,2,3,,1,667,3.64196,-2.7,0,455.24,29.4,
1576,1,SBT2050,2,3,,1,685,3.63657,-2.6998,0,468.74,29.4,
1576,1,SBT2050,2,3,,1,703,3.63118,-2.6995,0,482.239,29.3,
1576,1,SBT2050,2,3,,1,721,3.62626,-2.7003,0,495.739,29.3,
1576,1,SBT2050,2,3,,1,739,3.62089,-2.7001,0,509.239,29.3,
1576,1,SBT2050,2,3,,1,757,3.61568,-2.7001,0,522.739,29.3,
1576,1,SBT2050,2,3,,1,775,3.61095,-2.6998,0,536.238,29.3,
1576,1,SBT2050,2,3,,1,793,3.60539,-2.6998,0,549.738,29.2,
1576,1,SBT2050,2,3,,1,811,3.600288,-2.6999,0,563.238,29.2,
1576,1,SBT2050,2,3,,1,829,3.59539,-2.6997,0,576.737,29.2,
1576,1,SBT2050,2,3,,1,847,3.59008,-2.6999,0,590.237,29.2,
1576,1,SBT2050,2,3,,1,865,3.58518,-2.7003,0,603.737,29.2,
1576,1,SBT2050,2,3,,1,883,3.579948,-2.7001,0,617.237,29.1,
1576,1,SBT2050,2,3,,1,901,3.575,-2.6996,0,630.736,29.1,
1576,1,SBT2050,2,3,,1,919,3.5702,-2.6998,0,644.236,29.1,
1576,1,SBT2050,2,3,,1,937,3.5652,-2.7001,0,657.736,29.1,
1576,1,SBT2050,2,3,,1,955,3.55994,-2.7002,0,671.235,29.1,
1576,1,SBT2050,2,3,,1,973,3.5545,-2.6997,0,684.735,29.1,
1576,1,SBT2050,2,3,,1,991,3.549548,-2.6996,0,698.235,29.1,
1576,1,SBT2050,2,3,,1,1009,3.54454,-2.7,0,711.735,29,
1576,1,SBT2050,2,3,,1,1027,3.53916,-2.6999,0,725.234,29.1,
1576,1,SBT2050,2,3,,1,1045,3.53415,-2.6995,0,738.734,29,
1576,1,SBT2050,2,3,,1,1063,3.52941,-2.7001,0,752.234,29.1,
1576,1,SBT2050,2,3,,1,1081,3.52427,-2.7,0,765.733,29.1,
1576,1,SBT2050,2,3,,1,1099,3.51897,-2.6999,0,779.233,29.1,
1576,1,SBT2050,2,3,,1,1117,3.51404,-2.6998,0,792.733,29.1,
1576,1,SBT2050,2,3,,1,1135,3.50868,-2.7,0,806.233,29.1,
1576,1,SBT2050,2,3,,1,1153,3.503656,-2.6998,0,819.733,29.1,
1576,1,SBT2050,2,3,,1,1171,3.49856,-2.7001,0,833.232,29.1,
1576,1,SBT2050,2,3,,1,1189,3.49361,-2.7,0,846.732,29.1,
1576,1,SBT2050,2,3,,1,1207,3.48858,-2.7,0,860.232,29.1,
1576,1,SBT2050,2,3,,1,1225,3.48327,-2.6997,0,873.731,29.1,
1576,1,SBT2050,2,3,,1,1243,3.47821,-2.6998,0,887.231,29.1,
1576,1,SBT2050,2,3,,1,1261,3.47329,-2.6997,0,900.731,29.1,
1576,1,SBT2050,2,3,,1,1279,3.46849,-2.7,0,914.231,29.1,
1576,1,SBT2050,2,3,,1,1297,3.46335,-2.7003,0,927.73,29.1,
1576,1,SBT2050,2,3,,1,1315,3.45819,-2.7,0,941.23,29.1,
1576,1,SBT2050,2,3,,1,1333,3.45297,-2.7003,0,954.73,29.1,
1576,1,SBT2050,2,3,,1,1351,3.44821,-2.7,0,968.229,29.1,
1576,1,SBT2050,2,3,,1,1369,3.44333,-2.7001,0,981.729,29.1,
1576,1,SBT2050,2,3,,1,1387,3.43868,-2.6998,0,995.229,29.1,
1576,1,SBT2050,2,3,,1,1405,3.43358,-2.6999,0,1008.729,29.1,
1576,1,SBT2050,2,3,,1,1423,3.4286,-2.6995,0,1022.228,29.1,
1576,1,SBT2050,2,3,,1,1441,3.42352,-2.6997,0,1035.728,29.1,
1576,1,SBT2050,2,3,,1,1459,3.4188,-2.6998,0,1049.228,29.1,
1576,1,SBT2050,2,3,,1,1477,3.41396,-2.6998,0,1062.727,29.1,
1576,1,SBT2050,2,3,,1,1495,3.40915,-2.6999,0,1076.227,29.1,
1576,1,SBT2050,2,3,,1,1513,3.40421,-2.7,0,1089.727,29.1,
1576,1,SBT2050,2,3,,1,1531,3.39927,-2.6995,0,1103.227,29.1,
1576,1,SBT2050,2,3,,1,1549,3.39424,-2.7003,0,1116.726,29.1,
1576,1,SBT2050,2,3,,1,1567,3.389334,-2.7001,0,1130.226,29.1,
1576,1,SBT2050,2,3,,1,1585,3.38448,-2.7005,0,1143.726,29.1,
1576,1,SBT2050,2,3,,1,1603,3.37969,-2.6996,0,1157.225,29.2,
1576,1,SBT2050,2,3,,1,1621,3.37477,-2.7001,0,1170.725,29.1,
1576,1,SBT2050,2,3,,1,1639,3.369824,-2.7002,0,1184.225,29.1,
1576,1,SBT2050,2,3,,1,1657,3.365,-2.7001,0,1197.724,29.1,
1576,1,SBT2050,2,3,,1,1675,3.35994,-2.7001,0,1211.224,29.1,
1576,1,SBT2050,2,3,,1,1693,3.354731,-2.7001,0,1224.724,29.2,
1576,1,SBT2050,2,3,,1,1711,3.3497,-2.6998,0,1238.224,29.2,
1576,1,SBT2050,2,3,,1,1729,3.344865,-2.6998,0,1251.723,29.2,
1576,1,SBT2050,2,3,,1,1747,3.33992,-2.6997,0,1265.223,29.2,
1576,1,SBT2050,2,3,,1,1765,3.33502,-2.6997,0,1278.723,29.3,
1576,1,SBT2050,2,3,,1,1783,3.3299,-2.7001,0,1292.222,29.3,
1576,1,SBT2050,2,3,,1,1801,3.32481,-2.7003,0,1305.722,29.3,
1576,1,SBT2050,2,3,,1,1819,3.31983,-2.6997,0,1319.222,29.3,
1576,1,SBT2050,2,3,,1,1837,3.31456,-2.7001,0,1332.721,29.3,
1576,1,SBT2050,2,3,,1,1855,3.30933,-2.6997,0,1346.221,29.3,
1576,1,SBT2050,2,3,,1,1873,3.30439,-2.6999,0,1359.721,29.4,
1576,1,SBT2050,2,3,,1,1891,3.29894,-2.6997,0,1373.221,29.4,
1576,1,SBT2050,2,3,,1,1909,3.29369,-2.7,0,1386.72,29.4,
1576,1,SBT2050,2,3,,1,1927,3.2885,-2.6998,0,1400.22,29.4,
1576,1,SBT2050,2,3,,1,1945,3.28295,-2.7001,0,1413.72,29.4,
1576,1,SBT2050,2,3,,1,1963,3.27733,-2.6998,0,1427.22,29.4,
1576,1,SBT2050,2,3,,1,1981,3.27168,-2.6997,0,1440.719,29.5,
1576,1,SBT2050,2,3,,1,1999,3.266267,-2.7006,0,1454.219,29.5,
1576,1,SBT2050,2,3,,1,2017,3.26036,-2.7,0,1467.719,29.5,
1576,1,SBT2050,2,3,,1,2035,3.25478,-2.6997,0,1481.218,29.5,
1576,1,SBT2050,2,3,,1,2053,3.24876,-2.7001,0,1494.718,29.6,
1576,1,SBT2050,2,3,,1,2071,3.24296,-2.6997,0,1508.218,29.6,
1576,1,SBT2050,2,3,,1,2089,3.23708,-2.6995,0,1521.717,29.6,
1576,1,SBT2050,2,3,,1,2107,3.23104,-2.7,0,1535.217,29.7,
1576,1,SBT2050,2,3,,1,2125,3.224844,-2.6997,0,1548.717,29.7,
1576,1,SBT2050,2,3,,1,2143,3.21837,-2.7003,0,1562.217,29.8,
1576,1,SBT2050,2,3,,1,2161,3.21201,-2.6997,0,1575.716,29.8,
1576,1,SBT2050,2,3,,1,2179,3.20543,-2.6999,0,1589.216,29.9,
1576,1,SBT2050,2,3,,1,2197,3.19869,-2.6998,0,1602.716,29.9,
1576,1,SBT2050,2,3,,1,2215,3.191845,-2.7,0,1616.216,29.9,
1576,1,SBT2050,2,3,,1,2233,3.184864,-2.6998,0,1629.715,30,
1576,1,SBT2050,2,3,,1,2251,3.17752,-2.7,0,1643.215,30,
1576,1,SBT2050,2,3,,1,2269,3.17024,-2.7001,0,1656.715,30,
1576,1,SBT2050,2,3,,1,2287,3.16261,-2.6997,0,1670.214,30.1,
1576,1,SBT2050,2,3,,1,2305,3.15481,-2.6997,0,1683.714,30.1,
1576,1,SBT2050,2,3,,1,2323,3.14711,-2.7001,0,1697.214,30.2,
1576,1,SBT2050,2,3,,1,2341,3.13903,-2.7001,0,1710.714,30.2,
1576,1,SBT2050,2,3,,1,2359,3.13105,-2.6997,0,1724.213,30.3,
1576,1,SBT2050,2,3,,1,2377,3.12246,-2.7001,0,1737.713,30.3,
1576,1,SBT2050,2,3,,1,2395,3.11378,-2.6999,0,1751.213,30.4,
1576,1,SBT2050,2,3,,1,2413,3.10469,-2.6998,0,1764.713,30.5,
1576,1,SBT2050,2,3,,1,2431,3.09518,-2.6998,0,1778.212,30.5,
1576,1,SBT2050,2,3,,1,2449,3.08575,-2.7001,0,1791.712,30.5,
1576,1,SBT2050,2,3,,1,2467,3.07583,-2.6998,0,1805.212,30.6,
1576,1,SBT2050,2,3,,1,2485,3.06571,-2.7003,0,1818.712,30.7,
1576,1,SBT2050,2,3,,1,2503,3.05492,-2.6998,0,1832.211,30.8,
1576,1,SBT2050,2,3,,1,2521,3.04434,-2.7,0,1845.711,30.9,
1576,1,SBT2050,2,3,,1,2539,3.033299,-2.7003,0,1859.211,30.9,
1576,1,SBT2050,2,3,,1,2557,3.02125,-2.7003,0,1872.71,31,
1576,1,SBT2050,2,3,,1,2575,3.00916,-2.6998,0,1886.21,31.1,
1576,1,SBT2050,2,3,,1,2593,2.99675,-2.7,0,1899.71,31.2,
1576,1,SBT2050,2,3,,1,2611,2.98346,-2.7,0,1913.21,31.3,
1576,1,SBT2050,2,3,,1,2629,2.96988,-2.6994,0,1926.709,31.3,
1576,1,SBT2050,2,3,,1,2647,2.95571,-2.6998,0,1940.209,31.4,
1576,1,SBT2050,2,3,,1,2665,2.940426,-2.7001,0,1953.709,31.5,
1576,1,SBT2050,2,3,,1,2683,2.92452,-2.7001,0,1967.208,31.6,
1576,1,SBT2050,2,3,,1,2701,2.90749,-2.6997,0,1980.708,31.7,
1576,1,SBT2050,2,3,,1,2719,2.88937,-2.6997,0,1994.208,31.9,
1576,1,SBT2050,2,3,,1,2737,2.87008,-2.7,0,2007.708,32,
1576,1,SBT2050,2,3,,1,2755,2.84905,-2.7,0,2021.207,32.2,
1576,1,SBT2050,2,3,,1,2773,2.82617,-2.6996,0,2034.707,32.3,
1576,1,SBT2050,2,3,,1,2791,2.80112,-2.6994,0,2048.207,32.4,
1576,1,SBT2050,2,3,,1,2809,2.77324,-2.6997,0,2061.707,32.6,
1576,1,SBT2050,2,3,,1,2827,2.74285,-2.7005,0,2075.206,32.8,
1576,1,SBT2050,2,3,,1,2845,2.708853,-2.6998,0,2088.706,33,
1576,1,SBT2050,2,3,,1,2863,2.671121,-2.7001,0,2102.206,33.1,
1576,1,SBT2050,2,3,,1,2881,2.62875,-2.7001,0,2115.705,33.3,
1576,1,SBT2050,2,3,,1,2899,2.5802,-2.6998,0,2129.205,33.6,
1576,1,SBT2050,2,3,,1,2917,2.52375,-2.7003,0,2142.705,33.9,
1576,1,SBT2050,2,3,,2,2934,3.124107,0,0,2147.829,34.1,
1576,1,SBT2050,2,3,,2,2952,3.21687,0,0,2147.829,33.7,
1576,1,SBT2050,2,3,,2,2970,3.25486,0,0,2147.829,33.2,
1576,1,SBT2050,2,3,,2,2983.831,3.27385,-0.000101,0,2147.829,,