Folder: OR-RG_ExpRes/ORRG (part 3)

File: Test1498.csv
Request Year:,2018,,,,,,,,,,,,
Test:,1498,,,,,,,,,,,,
Test Description:,,,,,,,,,,,,,
TestRegime Name:,Aging_Performance,,,,,,,,,,,,
TestRegime Suffix:,SHP_LC,,,,,,,,,,,,
TestRegime CellSize:,18650,,,,,,,,,,,,
TestRegime Version:,1,,,,,,,,,,,,
Number Of Cells:,1,,,,,,,,,,,,
LotID:,,,,,,,,,,,,,
Lot Description:,,,,,,,,,,,,,
Date Made:,1/21/2003 12:00 AM,,,,,,,,,,,,
Origin:,Other,,,,,,,,,,,,
Requestor:,Admin,,,,,,,,,,,,
Product ID:,Default product,,,,,,,,,,,,
Storage Temp:,R.T./AMB,,,,,,,,,,,,
Storage Delay:,0 days,,,,,,,,,,,,
Test Temp:,R.T./AMB,,,,,,,,,,,,
Start Time:,4/13/2018 9:39 AM,,,,,,,,,,,,
End Time:,4/13/2018 6:49 PM,,,,,,,,,,,,
Operator Instructions:,,,,,,,,,,,,,
Test,Cell,Rack,Shelf,Position,Cell ID,Step,Total Time (Seconds),Voltage (V),Current (A),Charge Capacity (mAh),Discharge Capacity (mAh),TC1 (Â°C),
1498,1,SBT2050,2,3,,0,1,3.36022,0,0,0,25,
1498,1,SBT2050,2,3,,0,216,3.359832,0,0,0,24.8,
1498,1,SBT2050,2,3,,1,431,2.49986,-1.4725,0,76.094,28.4,
1498,1,SBT2050,2,3,,1,646,2.49998,-0.8305,0,142.618,29.4,
1498,1,SBT2050,2,3,,1,861,2.50003,-0.5086,0,181.586,28.6,
1498,1,SBT2050,2,3,,1,1076,2.500051,-0.3445,0,206.462,27.8,
1498,1,SBT2050,2,3,,1,1291,2.499872,-0.25672,0,224.17,27,
1498,1,SBT2050,2,3,,1,1506,2.49981,-0.20212,0,237.759,26.3,
1498,1,SBT2050,2,3,,1,1721,2.49975,-0.1648,0,248.663,26,
1498,1,SBT2050,2,3,,1,1936,2.49997,-0.13822,0,257.675,25.9,
1498,1,SBT2050,2,3,,1,2151,2.49991,-0.11711,0,265.272,25.8,
1498,1,SBT2050,2,3,,1,2366,2.49999,-0.09983,0,271.739,25.7,
1498,1,SBT2050,2,3,,1,2581,2.49993,-0.08506,0,277.258,25.6,
1498,1,SBT2050,2,3,,1,2796,2.5,-0.07281,0,281.964,25.5,
1498,1,SBT2050,2,3,,1,3011,2.4998,-0.06155,0,285.969,25.4,
1498,1,SBT2050,2,3,,1,3226,2.49986,-0.05181,0,289.356,25.4,
1498,1,SBT2050,2,3,,1,3441,2.49997,-0.04289,0,292.183,25.3,
1498,1,SBT2050,2,3,,1,3656,2.499872,-0.034541,0,294.496,25.3,
1498,1,SBT2050,2,3,,1,3871,2.49979,-0.026913,0,296.331,25.2,
1498,1,SBT2050,2,3,,1,4086,2.49996,-0.020114,0,297.729,25.2,
1498,1,SBT2050,2,3,,1,4301,2.500051,-0.015163,0,298.766,25.2,
1498,1,SBT2050,2,3,,1,4516,2.50006,-0.011905,0,299.563,25.1,
1498,1,SBT2050,2,3,,2,4730,3.427508,2.9363,38.726,300.071,25.4,
1498,1,SBT2050,2,3,,2,4945,3.6611,2.936,214.068,300.071,28,
1498,1,SBT2050,2,3,,2,5160,3.70966,2.9362,389.409,300.071,29.5,
1498,1,SBT2050,2,3,,2,5375,3.740254,2.9357,564.751,300.071,29.9,
1498,1,SBT2050,2,3,,2,5590,3.77607,2.9364,740.092,300.071,30,
1498,1,SBT2050,2,3,,2,5805,3.816846,2.9358,915.433,300.071,30,
1498,1,SBT2050,2,3,,2,6020,3.86442,2.9362,1090.774,300.071,30,
1498,1,SBT2050,2,3,,2,6235,3.91976,2.9361,1266.116,300.071,30.2,
1498,1,SBT2050,2,3,,2,6450,3.97957,2.9359,1441.457,300.071,30.4,
1498,1,SBT2050,2,3,,2,6665,4.04223,2.9359,1616.798,300.071,30.5,
1498,1,SBT2050,2,3,,2,6880,4.10434,2.9362,1792.14,300.071,30.8,
1498,1,SBT2050,2,3,,2,7095,4.14982,2.669,1965.139,300.071,30.8,
1498,1,SBT2050,2,3,,2,7310,4.15005,1.9474,2101.913,300.071,30.1,
1498,1,SBT2050,2,3,,2,7525,4.14987,1.4324,2201.827,300.071,28.9,
1498,1,SBT2050,2,3,,2,7740,4.14997,1.0877,2276.341,300.071,27.9,
1498,1,SBT2050,2,3,,2,7955,4.14993,0.8537,2333.902,300.071,27.2,
1498,1,SBT2050,2,3,,2,8170,4.150002,0.6916,2379.781,300.071,26.6,
1498,1,SBT2050,2,3,,2,8385,4.15016,0.5713,2417.298,300.071,26.3,
1498,1,SBT2050,2,3,,2,8600,4.14993,0.4802,2448.568,300.071,26,
1498,1,SBT2050,2,3,,2,8815,4.15022,0.41168,2475.126,300.071,25.8,
1498,1,SBT2050,2,3,,2,9030,4.15009,0.3583,2498.071,300.071,25.7,
1498,1,SBT2050,2,3,,2,9245,4.15009,0.3161,2518.172,300.071,25.6,
1498,1,SBT2050,2,3,,2,9460,4.15015,0.28262,2536.022,300.071,25.6,
1498,1,SBT2050,2,3,,2,9675,4.150038,0.25225,2551.974,300.071,25.5,
1498,1,SBT2050,2,3,,2,9890,4.15015,0.22757,2566.292,300.071,25.4,
1498,1,SBT2050,2,3,,2,10105,4.14993,0.20597,2579.218,300.071,25.4,
1498,1,SBT2050,2,3,,2,10320,4.14999,0.1869,2590.954,300.071,25.3,
1498,1,SBT2050,2,3,,2,10535,4.14991,0.17141,2601.661,300.071,25.3,
1498,1,SBT2050,2,3,,2,10750,4.15018,0.15816,2611.48,300.071,25.4,
1498,1,SBT2050,2,3,,2,10965,4.150026,0.14602,2620.539,300.071,25.5,
1498,1,SBT2050,2,3,,2,11180,4.15029,0.13461,2628.923,300.071,25.5,
1498,1,SBT2050,2,3,,2,11395,4.1502,0.12578,2636.707,300.071,25.6,
1498,1,SBT2050,2,3,,2,11610,4.14998,0.11706,2643.952,300.071,25.6,
1498,1,SBT2050,2,3,,2,11825,4.15015,0.1091,2650.709,300.071,25.6,
1498,1,SBT2050,2,3,,2,12040,4.14993,0.10162,2656.999,300.071,25.6,
1498,1,SBT2050,2,3,,2,12255,4.15012,0.09513,2662.878,300.071,25.7,
1498,1,SBT2050,2,3,,2,12470,4.15024,0.08604,2668.32,300.071,25.5,
1498,1,SBT2050,2,3,,2,12685,4.150002,0.07943,2673.258,300.071,25,
1498,1,SBT2050,2,3,,2,12900,4.14998,0.07445,2677.853,300.071,25,
1498,1,SBT2050,2,3,,2,13115,4.14994,0.06923,2682.135,300.071,25,
1498,1,SBT2050,2,3,,2,13330,4.15013,0.06497,2686.141,300.071,25,
1498,1,SBT2050,2,3,,2,13545,4.150026,0.06069,2689.892,300.071,25.1,
1498,1,SBT2050,2,3,,2,13760,4.150014,0.05736,2693.419,300.071,25.2,
1498,1,SBT2050,2,3,,2,13975,4.14992,0.05472,2696.77,300.071,25.3,
1498,1,SBT2050,2,3,,2,14190,4.14997,0.05167,2699.953,300.071,25.4,
1498,1,SBT2050,2,3,,2,14405,4.150026,0.04938,2702.979,300.071,25.5,
1498,1,SBT2050,2,3,,2,14620,4.14985,0.045229,2705.807,300.071,25.2,
1498,1,SBT2050,2,3,,2,14835,4.15029,0.041821,2708.412,300.071,25.1,
1498,1,SBT2050,2,3,,2,15050,4.14987,0.040589,2710.878,300.071,25.1,
1498,1,SBT2050,2,3,,2,15265,4.150038,0.037992,2713.21,300.071,25.1,
1498,1,SBT2050,2,3,,2,15480,4.14998,0.03568,2715.401,300.071,25.1,
1498,1,SBT2050,2,3,,2,15695,4.14967,0.034126,2717.487,300.071,25.1,
1498,1,SBT2050,2,3,,2,15910,4.14994,0.032201,2719.443,300.071,25.1,
1498,1,SBT2050,2,3,,2,16125,4.14993,0.030469,2721.324,300.071,25.1,
1498,1,SBT2050,2,3,,2,16340,4.15007,0.029252,2723.098,300.071,25.1,
1498,1,SBT2050,2,3,,2,16555,4.150002,0.027217,2724.791,300.071,25.1,
1498,1,SBT2050,2,3,,2,16770,4.14989,0.026013,2726.384,300.071,25.1,
1498,1,SBT2050,2,3,,2,16985,4.14992,0.024857,2727.906,300.071,25.1,
1498,1,SBT2050,2,3,,2,17200,4.15011,0.023628,2729.361,300.071,25.1,
1498,1,SBT2050,2,3,,2,17415,4.1501,0.022668,2730.742,300.071,25.1,
1498,1,SBT2050,2,3,,2,17630,4.150002,0.021905,2732.063,300.071,25.1,
1498,1,SBT2050,2,3,,2,17845,4.15007,0.020788,2733.326,300.071,25.1,
1498,1,SBT2050,2,3,,2,18060,4.14988,0.019707,2734.521,300.071,25.2,
1498,1,SBT2050,2,3,,2,18275,4.15024,0.018296,2735.672,300.071,25.1,
1498,1,SBT2050,2,3,,2,18490,4.15012,0.017644,2736.778,300.071,25.1,
1498,1,SBT2050,2,3,,2,18705,4.150038,0.016667,2737.827,300.071,25.1,
1498,1,SBT2050,2,3,,2,18920,4.150038,0.016615,2738.849,300.071,25.1,
1498,1,SBT2050,2,3,,2,19135,4.14999,0.01613,2739.816,300.071,25.2,
1498,1,SBT2050,2,3,,2,19350,4.15006,0.015054,2740.756,300.071,25.1,
1498,1,SBT2050,2,3,,2,19565,4.14995,0.014566,2741.64,300.071,25.1,
1498,1,SBT2050,2,3,,2,19780,4.150038,0.013716,2742.493,300.071,25.1,
1498,1,SBT2050,2,3,,2,19995,4.14997,0.013464,2743.303,300.071,25.1,
1498,1,SBT2050,2,3,,2,20210,4.15009,0.013041,2744.094,300.071,25.1,
1498,1,SBT2050,2,3,,2,20425,4.150026,0.011999,2744.84,300.071,25.1,
1498,1,SBT2050,2,3,,2,20640,4.14975,0.011897,2745.566,300.071,25.2,
1498,1,SBT2050,2,3,,2,20855,4.14981,0.011497,2746.267,300.071,25.1,
1498,1,SBT2050,2,3,,2,21070,4.14997,0.010779,2746.94,300.071,25.1,
1498,1,SBT2050,2,3,,2,21285,4.15011,0.010676,2747.582,300.071,25.1,
1498,1,SBT2050,2,3,,3,21499,4.147198,0,2747.72,300.071,25.1,
1498,1,SBT2050,2,3,,3,21714,4.146104,0,2747.72,300.071,25.1,
1498,1,SBT2050,2,3,,3,21929,4.14575,0,2747.72,300.071,25.1,
1498,1,SBT2050,2,3,,3,22144,4.14535,0,2747.72,300.071,25.2,
1498,1,SBT2050,2,3,,3,22359,4.14504,0,2747.72,300.071,25.1,
1498,1,SBT2050,2,3,,3,22574,4.14463,0,2747.72,300.071,25.1,
1498,1,SBT2050,2,3,,3,22789,4.14439,0,2747.72,300.071,25.1,
1498,1,SBT2050,2,3,,3,23004,4.14439,0,2747.72,300.071,25.1,
1498,1,SBT2050,2,3,,4,23218,3.79227,-2.9356,2747.72,369.607,26.2,
1498,1,SBT2050,2,3,,4,23433,3.757344,-2.9355,2747.72,544.948,28.5,
1498,1,SBT2050,2,3,,4,23648,3.71771,-2.9364,2747.72,720.288,29.2,
1498,1,SBT2050,2,3,,4,23863,3.66529,-2.9363,2747.72,895.629,29.3,
1498,1,SBT2050,2,3,,4,24078,3.60662,-2.9362,2747.72,1070.971,29.4,
1498,1,SBT2050,2,3,,4,24293,3.544326,-2.9359,2747.72,1246.311,29.4,
1498,1,SBT2050,2,3,,4,24508,3.48082,-2.9362,2747.72,1421.652,29.5,
1498,1,SBT2050,2,3,,4,24723,3.41939,-2.9361,2747.72,1596.994,29.6,
1498,1,SBT2050,2,3,,4,24938,3.360644,-2.9359,2747.72,1772.335,29.7,
1498,1,SBT2050,2,3,,4,25153,3.29931,-2.9357,2747.72,1947.677,30.1,
1498,1,SBT2050,2,3,,4,25368,3.227,-2.9357,2747.72,2123.018,30.4,
1498,1,SBT2050,2,3,,4,25583,3.13052,-2.9358,2747.72,2298.359,31,
1498,1,SBT2050,2,3,,4,25798,2.98948,-2.936,2747.72,2473.701,32.1,
1498,1,SBT2050,2,3,,4,26013,2.75717,-2.9361,2747.72,2649.041,33.9,
1498,1,SBT2050,2,3,,4,26228,2.4999,-1.869,2747.72,2804.889,36.4,
1498,1,SBT2050,2,3,,4,26443,2.499689,-0.9005,2747.72,2883.813,34.1,
1498,1,SBT2050,2,3,,4,26658,2.49993,-0.4934,2747.72,2923.331,31,
1498,1,SBT2050,2,3,,4,26873,2.499856,-0.34058,2747.72,2947.591,28.9,
1498,1,SBT2050,2,3,,4,27088,2.49976,-0.26562,2747.72,2965.486,27.7,
1498,1,SBT2050,2,3,,4,27303,2.4998,-0.21866,2747.72,2979.862,27,
1498,1,SBT2050,2,3,,4,27518,2.499999,-0.18424,2747.72,2991.855,26.6,
1498,1,SBT2050,2,3,,4,27733,2.49996,-0.15562,2747.72,3001.983,26.2,
1498,1,SBT2050,2,3,,4,27948,2.499856,-0.12965,2747.72,3010.49,26.1,
1498,1,SBT2050,2,3,,4,28163,2.49998,-0.10625,2747.72,3017.528,25.9,
1498,1,SBT2050,2,3,,4,28378,2.49992,-0.08556,2747.72,3023.245,25.7,
1498,1,SBT2050,2,3,,4,28593,2.50013,-0.06754,2747.72,3027.796,25.6,
1498,1,SBT2050,2,3,,4,28808,2.49996,-0.05304,2747.72,3031.374,25.6,
1498,1,SBT2050,2,3,,4,29023,2.49978,-0.043282,2747.72,3034.236,25.5,
1498,1,SBT2050,2,3,,4,29238,2.49999,-0.036498,2747.72,3036.609,25.4,
1498,1,SBT2050,2,3,,4,29453,2.49999,-0.031341,2747.72,3038.627,25.4,
1498,1,SBT2050,2,3,,4,29668,2.49995,-0.027055,2747.72,3040.364,25.4,
1498,1,SBT2050,2,3,,4,29883,2.50011,-0.023399,2747.72,3041.865,25.3,
1498,1,SBT2050,2,3,,4,30098,2.50011,-0.020292,2747.72,3043.166,25.3,
1498,1,SBT2050,2,3,,4,30313,2.499844,-0.017734,2747.72,3044.303,25.3,
1498,1,SBT2050,2,3,,4,30528,2.49989,-0.015529,2747.72,3045.303,25.2,
1498,1,SBT2050,2,3,,4,30743,2.49998,-0.013649,2747.72,3046.179,25.2,
1498,1,SBT2050,2,3,,4,30958,2.50007,-0.011818,2747.72,3046.941,25.2,
1498,1,SBT2050,2,3,,4,31173,2.50011,-0.010359,2747.72,3047.599,25.2,
1498,1,SBT2050,2,3,,5,31387,2.59755,0,2747.72,3047.661,25.2,
1498,1,SBT2050,2,3,,5,31602,2.658926,0,2747.72,3047.661,25.2,
1498,1,SBT2050,2,3,,5,31817,2.69683,0,2747.72,3047.661,25.2,
1498,1,SBT2050,2,3,,5,32032,2.7223,0,2747.72,3047.661,25.1,
1498,1,SBT2050,2,3,,5,32247,2.74117,0,2747.72,3047.661,25.1,
1498,1,SBT2050,2,3,,5,32462,2.75521,0,2747.72,3047.661,24.9,
1498,1,SBT2050,2,3,,5,32677,2.76601,0,2747.72,3047.661,24.8,
1498,1,SBT2050,2,3,,5,32892,2.77528,0,2747.72,3047.661,24.8,
1498,1,SBT2050,2,3,,5,32994.627,2.779466,-0.0001,2747.72,3047.661,,

File: Test1514.csv
Request Year:,2018,,,,,,,,,,,,
Test:,1514,,,,,,,,,,,,
Test Description:,,,,,,,,,,,,,
TestRegime Name:,Aging_Performance,,,,,,,,,,,,
TestRegime Suffix:,SHP_LC,,,,,,,,,,,,
TestRegime CellSize:,18650,,,,,,,,,,,,
TestRegime Version:,1,,,,,,,,,,,,
Number Of Cells:,1,,,,,,,,,,,,
LotID:,,,,,,,,,,,,,
Lot Description:,,,,,,,,,,,,,
Date Made:,1/21/2003 12:00 AM,,,,,,,,,,,,
Origin:,Other,,,,,,,,,,,,
Requestor:,Admin,,,,,,,,,,,,
Product ID:,Default product,,,,,,,,,,,,
Storage Temp:,R.T./AMB,,,,,,,,,,,,
Storage Delay:,0 days,,,,,,,,,,,,
Test Temp:,R.T./AMB,,,,,,,,,,,,
Start Time:,4/19/2018 3:41 PM,,,,,,,,,,,,
End Time:,4/20/2018 12:49 AM,,,,,,,,,,,,
Operator Instructions:,,,,,,,,,,,,,
Test,Cell,Rack,Shelf,Position,Cell ID,Step,Total Time (Seconds),Voltage (V),Current (A),Charge Capacity (mAh),Discharge Capacity (mAh),TC1 (Â°C),
1514,1,SBT2050,2,3,,0,1,3.34556,0,0,0,24.7,
1514,1,SBT2050,2,3,,0,216,3.34579,0,0,0,25,
1514,1,SBT2050,2,3,,1,431,2.499819,-1.2126,0,64.865,28.2,
1514,1,SBT2050,2,3,,1,646,2.49987,-0.671,0,118.66,28.9,
1514,1,SBT2050,2,3,,1,861,2.50003,-0.42323,0,150.575,28.1,
1514,1,SBT2050,2,3,,1,1076,2.49984,-0.29405,0,171.603,27.4,
1514,1,SBT2050,2,3,,1,1291,2.49988,-0.2215,0,186.803,26.8,
1514,1,SBT2050,2,3,,1,1506,2.49984,-0.17685,0,198.613,26.4,
1514,1,SBT2050,2,3,,1,1721,2.50021,-0.14711,0,208.239,26.1,
1514,1,SBT2050,2,3,,1,1936,2.49993,-0.12457,0,216.314,25.9,
1514,1,SBT2050,2,3,,1,2151,2.50006,-0.10691,0,223.212,25.7,
1514,1,SBT2050,2,3,,1,2366,2.50009,-0.09237,0,229.146,25.6,
1514,1,SBT2050,2,3,,1,2581,2.4997,-0.07987,0,234.281,25.5,
1514,1,SBT2050,2,3,,1,2796,2.49987,-0.06968,0,238.746,25.5,
1514,1,SBT2050,2,3,,1,3011,2.49984,-0.06068,0,242.636,25.4,
1514,1,SBT2050,2,3,,1,3226,2.499807,-0.05246,0,246.008,25.4,
1514,1,SBT2050,2,3,,1,3441,2.50001,-0.045266,0,248.919,25.3,
1514,1,SBT2050,2,3,,1,3656,2.499962,-0.039011,0,251.43,25.3,
1514,1,SBT2050,2,3,,1,3871,2.49989,-0.033489,0,253.589,25.4,
1514,1,SBT2050,2,3,,1,4086,2.50007,-0.028143,0,255.421,25.4,
1514,1,SBT2050,2,3,,1,4301,2.499962,-0.023397,0,256.954,25.5,
1514,1,SBT2050,2,3,,1,4516,2.499807,-0.019764,0,258.246,25.5,
1514,1,SBT2050,2,3,,1,4731,2.49991,-0.016569,0,259.335,25.5,
1514,1,SBT2050,2,3,,1,4946,2.50008,-0.013978,0,260.247,25.5,
1514,1,SBT2050,2,3,,1,5161,2.50003,-0.01178,0,261.015,25.5,
1514,1,SBT2050,2,3,,1,5376,2.49991,-0.010207,0,261.671,25.5,
1514,1,SBT2050,2,3,,2,5590,3.63078,2.936,171.84,261.681,27.6,
1514,1,SBT2050,2,3,,2,5805,3.684548,2.9364,347.181,261.681,29.5,
1514,1,SBT2050,2,3,,2,6020,3.71908,2.9357,522.522,261.681,30.2,
1514,1,SBT2050,2,3,,2,6235,3.75194,2.9361,697.863,261.681,30.3,
1514,1,SBT2050,2,3,,2,6450,3.78877,2.936,873.204,261.681,30.3,
1514,1,SBT2050,2,3,,2,6665,3.8295,2.9357,1048.544,261.681,30.3,
1514,1,SBT2050,2,3,,2,6880,3.87794,2.9359,1223.886,261.681,30.5,
1514,1,SBT2050,2,3,,2,7095,3.93602,2.9361,1399.228,261.681,30.7,
1514,1,SBT2050,2,3,,2,7310,3.998452,2.9358,1574.57,261.681,30.9,
1514,1,SBT2050,2,3,,2,7525,4.06367,2.9357,1749.912,261.681,31.1,
1514,1,SBT2050,2,3,,2,7740,4.13021,2.9361,1925.254,261.681,31.3,
1514,1,SBT2050,2,3,,2,7955,4.15021,2.3211,2086.639,261.681,31.1,
1514,1,SBT2050,2,3,,2,8170,4.14993,1.6737,2204.85,261.681,30,
1514,1,SBT2050,2,3,,2,8385,4.15008,1.2254,2290.488,261.681,28.9,
1514,1,SBT2050,2,3,,2,8600,4.14996,0.9251,2354.082,261.681,28,
1514,1,SBT2050,2,3,,2,8815,4.15003,0.7242,2402.992,261.681,27.3,
1514,1,SBT2050,2,3,,2,9030,4.1502,0.5858,2441.897,261.681,26.8,
1514,1,SBT2050,2,3,,2,9245,4.14992,0.4872,2473.782,261.681,26.5,
1514,1,SBT2050,2,3,,2,9460,4.150154,0.41427,2500.559,261.681,26.4,
1514,1,SBT2050,2,3,,2,9675,4.15008,0.35951,2523.612,261.681,26.2,
1514,1,SBT2050,2,3,,2,9890,4.14989,0.31621,2543.738,261.681,26.1,
1514,1,SBT2050,2,3,,2,10105,4.14996,0.27996,2561.519,261.681,26,
1514,1,SBT2050,2,3,,2,10320,4.14995,0.25003,2577.306,261.681,26,
1514,1,SBT2050,2,3,,2,10535,4.15008,0.22336,2591.421,261.681,26,
1514,1,SBT2050,2,3,,2,10750,4.15006,0.20112,2604.061,261.681,25.9,
1514,1,SBT2050,2,3,,2,10965,4.14997,0.18134,2615.461,261.681,25.9,
1514,1,SBT2050,2,3,,2,11180,4.14996,0.16505,2625.791,261.681,25.9,
1514,1,SBT2050,2,3,,2,11395,4.15032,0.15011,2635.166,261.681,25.9,
1514,1,SBT2050,2,3,,2,11610,4.15002,0.13706,2643.719,261.681,25.9,
1514,1,SBT2050,2,3,,2,11825,4.15009,0.11797,2651.338,261.681,25.3,
1514,1,SBT2050,2,3,,2,12040,4.1499,0.10509,2657.972,261.681,24.5,
1514,1,SBT2050,2,3,,2,12255,4.15009,0.09697,2664.016,261.681,24.5,
1514,1,SBT2050,2,3,,2,12470,4.15017,0.08922,2669.573,261.681,24.7,
1514,1,SBT2050,2,3,,2,12685,4.15025,0.0828,2674.704,261.681,24.8,
1514,1,SBT2050,2,3,,2,12900,4.14986,0.07666,2679.457,261.681,24.8,
1514,1,SBT2050,2,3,,2,13115,4.15003,0.07106,2683.883,261.681,24.9,
1514,1,SBT2050,2,3,,2,13330,4.15007,0.06619,2687.994,261.681,24.9,
1514,1,SBT2050,2,3,,2,13545,4.14995,0.06213,2691.828,261.681,24.9,
1514,1,SBT2050,2,3,,2,13760,4.15006,0.0577,2695.398,261.681,25,
1514,1,SBT2050,2,3,,2,13975,4.14997,0.0545,2698.74,261.681,25,
1514,1,SBT2050,2,3,,2,14190,4.14994,0.05028,2701.863,261.681,25,
1514,1,SBT2050,2,3,,2,14405,4.14984,0.0475,2704.782,261.681,25,
1514,1,SBT2050,2,3,,2,14620,4.15,0.044622,2707.528,261.681,25,
1514,1,SBT2050,2,3,,2,14835,4.15018,0.041785,2710.107,261.681,25,
1514,1,SBT2050,2,3,,2,15050,4.14984,0.039562,2712.534,261.681,25,
1514,1,SBT2050,2,3,,2,15265,4.14999,0.037863,2714.836,261.681,25,
1514,1,SBT2050,2,3,,2,15480,4.15018,0.035931,2717.012,261.681,25,
1514,1,SBT2050,2,3,,2,15695,4.14992,0.033958,2719.084,261.681,25,
1514,1,SBT2050,2,3,,2,15910,4.15033,0.031763,2721.041,261.681,25,
1514,1,SBT2050,2,3,,2,16125,4.15006,0.030445,2722.896,261.681,25,
1514,1,SBT2050,2,3,,2,16340,4.15026,0.028573,2724.656,261.681,25,
1514,1,SBT2050,2,3,,2,16555,4.14997,0.027177,2726.318,261.681,25,
1514,1,SBT2050,2,3,,2,16770,4.14993,0.025793,2727.905,261.681,25,
1514,1,SBT2050,2,3,,2,16985,4.149808,0.02489,2729.398,261.681,25,
1514,1,SBT2050,2,3,,2,17200,4.14999,0.023567,2730.838,261.681,24.9,
1514,1,SBT2050,2,3,,2,17415,4.14989,0.021958,2732.195,261.681,24.9,
1514,1,SBT2050,2,3,,2,17630,4.15026,0.021077,2733.483,261.681,24.9,
1514,1,SBT2050,2,3,,2,17845,4.15009,0.01976,2734.714,261.681,24.9,
1514,1,SBT2050,2,3,,2,18060,4.14971,0.019089,2735.882,261.681,24.9,
1514,1,SBT2050,2,3,,2,18275,4.14999,0.017908,2736.995,261.681,25,
1514,1,SBT2050,2,3,,2,18490,4.15008,0.017272,2738.056,261.681,24.9,
1514,1,SBT2050,2,3,,2,18705,4.150118,0.016334,2739.078,261.681,25,
1514,1,SBT2050,2,3,,2,18920,4.149808,0.015999,2740.063,261.681,25,
1514,1,SBT2050,2,3,,2,19135,4.15008,0.015382,2741,261.681,24.9,
1514,1,SBT2050,2,3,,2,19350,4.1499,0.014727,2741.909,261.681,24.9,
1514,1,SBT2050,2,3,,2,19565,4.14988,0.014107,2742.771,261.681,25,
1514,1,SBT2050,2,3,,2,19780,4.149832,0.013594,2743.596,261.681,25,
1514,1,SBT2050,2,3,,2,19995,4.15,0.013227,2744.397,261.681,25.1,
1514,1,SBT2050,2,3,,2,20210,4.15006,0.013054,2745.187,261.681,25.3,
1514,1,SBT2050,2,3,,2,20425,4.14974,0.01199,2745.932,261.681,25.2,
1514,1,SBT2050,2,3,,2,20640,4.15001,0.011301,2746.636,261.681,25.2,
1514,1,SBT2050,2,3,,2,20855,4.15005,0.011304,2747.317,261.681,25.2,
1514,1,SBT2050,2,3,,2,21070,4.15006,0.01044,2747.974,261.681,24.3,
1514,1,SBT2050,2,3,,3,21284,4.146118,0,2748.022,261.681,24.2,
1514,1,SBT2050,2,3,,3,21942.486,4.14435,0,2748.022,261.681,24.5,
1514,1,SBT2050,2,3,,3,22157.486,4.14425,0,2748.022,261.681,24.9,
1514,1,SBT2050,2,3,,3,22372.486,4.1439,0,2748.022,261.681,25.1,
1514,1,SBT2050,2,3,,3,22587.486,4.143606,0,2748.022,261.681,25.1,
1514,1,SBT2050,2,3,,3,22802.486,4.14321,0,2748.022,261.681,24.9,
1514,1,SBT2050,2,3,,3,23017.486,4.14312,0,2748.022,261.681,24.9,
1514,1,SBT2050,2,3,,3,23232.486,4.14301,0,2748.022,261.681,24.9,
1514,1,SBT2050,2,3,,4,23446.486,3.78035,-2.9357,2748.022,356.438,26.5,
1514,1,SBT2050,2,3,,4,23661.486,3.75522,-2.9358,2748.022,531.781,29.4,
1514,1,SBT2050,2,3,,4,23876.486,3.71833,-2.9359,2748.022,707.123,30.1,
1514,1,SBT2050,2,3,,4,24091.486,3.66373,-2.936,2748.022,882.465,29.6,
1514,1,SBT2050,2,3,,4,24306.486,3.603994,-2.936,2748.022,1057.806,29.2,
1514,1,SBT2050,2,3,,4,24521.486,3.54262,-2.9359,2748.022,1233.148,29.1,
1514,1,SBT2050,2,3,,4,24736.486,3.48091,-2.936,2748.022,1408.49,29.1,
1514,1,SBT2050,2,3,,4,24951.486,3.42167,-2.9359,2748.022,1583.833,29.3,
1514,1,SBT2050,2,3,,4,25166.486,3.36483,-2.9358,2748.022,1759.175,29.4,
1514,1,SBT2050,2,3,,4,25381.486,3.30599,-2.9361,2748.022,1934.516,29.5,
1514,1,SBT2050,2,3,,4,25596.486,3.23826,-2.9362,2748.022,2109.857,29.9,
1514,1,SBT2050,2,3,,4,25811.486,3.14984,-2.9357,2748.022,2285.199,30.5,
1514,1,SBT2050,2,3,,4,26026.486,3.02041,-2.936,2748.022,2460.54,31.4,
1514,1,SBT2050,2,3,,4,26241.486,2.78609,-2.936,2748.022,2635.882,32.9,
1514,1,SBT2050,2,3,,4,26456.486,2.49981,-1.8412,2748.022,2793.503,35.5,
1514,1,SBT2050,2,3,,4,26671.486,2.49989,-0.8189,2748.022,2867.882,33.1,
1514,1,SBT2050,2,3,,4,26886.486,2.49989,-0.45067,2748.022,2903.931,30.2,
1514,1,SBT2050,2,3,,4,27101.486,2.49974,-0.30392,2748.022,2925.917,28.3,
1514,1,SBT2050,2,3,,4,27316.486,2.49982,-0.22707,2748.022,2941.596,27.2,
1514,1,SBT2050,2,3,,4,27531.486,2.49994,-0.17734,2748.022,2953.577,26.6,
1514,1,SBT2050,2,3,,4,27746.486,2.49989,-0.14298,2748.022,2963.084,26.1,
1514,1,SBT2050,2,3,,4,27961.486,2.5,-0.11864,2748.022,2970.861,25.8,
1514,1,SBT2050,2,3,,4,28176.486,2.49987,-0.0998,2748.022,2977.377,25.7,
1514,1,SBT2050,2,3,,4,28391.486,2.49999,-0.08459,2748.022,2982.877,25.6,
1514,1,SBT2050,2,3,,4,28606.486,2.49992,-0.07199,2748.022,2987.535,25.5,
1514,1,SBT2050,2,3,,4,28821.486,2.49999,-0.06158,2748.022,2991.511,25.4,
1514,1,SBT2050,2,3,,4,29036.486,2.49991,-0.05271,2748.022,2994.915,25.3,
1514,1,SBT2050,2,3,,4,29251.486,2.49986,-0.044713,2748.022,2997.825,25.3,
1514,1,SBT2050,2,3,,4,29466.486,2.499953,-0.037462,2748.022,3000.28,25.3,
1514,1,SBT2050,2,3,,4,29681.486,2.49993,-0.031426,2748.022,3002.331,25.3,
1514,1,SBT2050,2,3,,4,29896.486,2.50006,-0.026291,2748.022,3004.05,25.2,
1514,1,SBT2050,2,3,,4,30111.486,2.50001,-0.02176,2748.022,3005.481,25.1,
1514,1,SBT2050,2,3,,4,30326.486,2.49994,-0.018014,2748.022,3006.66,25.1,
1514,1,SBT2050,2,3,,4,30541.486,2.49985,-0.014593,2748.022,3007.631,25.1,
1514,1,SBT2050,2,3,,4,30756.486,2.50001,-0.012423,2748.022,3008.444,25.1,
1514,1,SBT2050,2,3,,4,30971.486,2.499953,-0.010556,2748.022,3009.134,25.1,
1514,1,SBT2050,2,3,,5,31185.486,2.57217,0,2748.022,3009.348,25.1,
1514,1,SBT2050,2,3,,5,31400.486,2.63769,0,2748.022,3009.348,25.1,
1514,1,SBT2050,2,3,,5,31615.486,2.68037,0,2748.022,3009.348,25.1,
1514,1,SBT2050,2,3,,5,31830.486,2.70951,0,2748.022,3009.348,25.2,
1514,1,SBT2050,2,3,,5,32045.486,2.73174,0,2748.022,3009.348,25.2,
1514,1,SBT2050,2,3,,5,32260.486,2.74849,0,2748.022,3009.348,25.1,
1514,1,SBT2050,2,3,,5,32475.486,2.76199,0,2748.022,3009.348,25.1,
1514,1,SBT2050,2,3,,5,32690.486,2.77291,0,2748.022,3009.348,25.1,
1514,1,SBT2050,2,3,,5,32845.657,2.77989,-0.0001,2748.022,3009.348,,