Folder: OR-RG_ExpRes/ORRG (part 5)

File: Test1544.csv
Request Year:,2018,,,,,,,,,,,,
Test:,1544,,,,,,,,,,,,
Test Description:,,,,,,,,,,,,,
TestRegime Name:,Aging_Performance,,,,,,,,,,,,
TestRegime Suffix:,SHP_LC,,,,,,,,,,,,
TestRegime CellSize:,18650,,,,,,,,,,,,
TestRegime Version:,1,,,,,,,,,,,,
Number Of Cells:,1,,,,,,,,,,,,
LotID:,,,,,,,,,,,,,
Lot Description:,,,,,,,,,,,,,
Date Made:,1/21/2003 12:00 AM,,,,,,,,,,,,
Origin:,Other,,,,,,,,,,,,
Requestor:,Admin,,,,,,,,,,,,
Product ID:,Default product,,,,,,,,,,,,
Storage Temp:,R.T./AMB,,,,,,,,,,,,
Storage Delay:,0 days,,,,,,,,,,,,
Test Temp:,R.T./AMB,,,,,,,,,,,,
Start Time:,4/24/2018 6:24 AM,,,,,,,,,,,,
End Time:,4/24/2018 5:51 PM,,,,,,,,,,,,
Operator Instructions:,,,,,,,,,,,,,
Test,Cell,Rack,Shelf,Position,Cell ID,Step,Total Time (Seconds),Voltage (V),Current (A),Charge Capacity (mAh),Discharge Capacity (mAh),TC1 (Â°C),
1544,1,SBT2050,2,3,,0,1,3.37227,0,0,0,24.7,
1544,1,SBT2050,2,3,,0,269,3.37326,0,0,0,25.1,
1544,1,SBT2050,2,3,,1,537,2.49994,-1.0866,0,110.474,29.5,
1544,1,SBT2050,2,3,,1,805,2.500038,-0.6102,0,171.321,29,
1544,1,SBT2050,2,3,,1,1073,2.49978,-0.39038,0,207.478,27.9,
1544,1,SBT2050,2,3,,1,1341,2.49997,-0.2824,0,232.063,27,
1544,1,SBT2050,2,3,,1,1609,2.500038,-0.22062,0,250.619,26.4,
1544,1,SBT2050,2,3,,1,1877,2.49992,-0.1804,0,265.469,26.1,
1544,1,SBT2050,2,3,,1,2145,2.49982,-0.15163,0,277.786,25.9,
1544,1,SBT2050,2,3,,1,2413,2.49993,-0.12897,0,288.2,25.7,
1544,1,SBT2050,2,3,,1,2681,2.49994,-0.11136,0,297.112,25.6,
1544,1,SBT2050,2,3,,1,2949,2.499883,-0.09701,0,304.839,25.5,
1544,1,SBT2050,2,3,,1,3217,2.49999,-0.08544,0,311.612,25.4,
1544,1,SBT2050,2,3,,1,3485,2.500038,-0.07577,0,317.608,25.4,
1544,1,SBT2050,2,3,,1,3753,2.49991,-0.06671,0,322.918,25.3,
1544,1,SBT2050,2,3,,1,4021,2.50001,-0.05925,0,327.606,25.3,
1544,1,SBT2050,2,3,,1,4289,2.50003,-0.05233,0,331.75,25.3,
1544,1,SBT2050,2,3,,1,4557,2.49995,-0.046212,0,335.419,25.2,
1544,1,SBT2050,2,3,,1,4825,2.49998,-0.040864,0,338.668,25.2,
1544,1,SBT2050,2,3,,1,5093,2.49993,-0.036116,0,341.537,25.2,
1544,1,SBT2050,2,3,,1,5361,2.500062,-0.031863,0,344.065,25.2,
1544,1,SBT2050,2,3,,1,5629,2.500038,-0.027937,0,346.286,25.1,
1544,1,SBT2050,2,3,,1,5897,2.50017,-0.024602,0,348.233,25.1,
1544,1,SBT2050,2,3,,1,6165,2.50005,-0.021708,0,349.944,25.1,
1544,1,SBT2050,2,3,,1,6433,2.5,-0.018878,0,351.452,25.1,
1544,1,SBT2050,2,3,,1,6701,2.49986,-0.016529,0,352.774,25.1,
1544,1,SBT2050,2,3,,1,6969,2.50001,-0.014451,0,353.928,25.1,
1544,1,SBT2050,2,3,,1,7237,2.500038,-0.012645,0,354.935,25,
1544,1,SBT2050,2,3,,1,7505,2.49997,-0.011019,0,355.814,25,
1544,1,SBT2050,2,3,,2,7772,3.59132,2.9362,76.353,356.324,25.9,
1544,1,SBT2050,2,3,,2,8040,3.71639,2.9355,294.918,356.324,29,
1544,1,SBT2050,2,3,,2,8308,3.763858,2.9358,513.482,356.324,30.1,
1544,1,SBT2050,2,3,,2,8576,3.81044,2.936,732.047,356.324,30.2,
1544,1,SBT2050,2,3,,2,8844,3.8651,2.9361,950.611,356.324,30.3,
1544,1,SBT2050,2,3,,2,9112,3.93266,2.9359,1169.175,356.324,30.5,
1544,1,SBT2050,2,3,,2,9380,4.0086,2.9361,1387.739,356.324,30.7,
1544,1,SBT2050,2,3,,2,9648,4.08867,2.9356,1606.303,356.324,31,
1544,1,SBT2050,2,3,,2,9916,4.15008,2.6515,1821.904,356.324,31.1,
1544,1,SBT2050,2,3,,2,10184,4.15026,1.8442,1987.478,356.324,29.9,
1544,1,SBT2050,2,3,,2,10452,4.14995,1.315,2103.551,356.324,28.5,
1544,1,SBT2050,2,3,,2,10720,4.14995,0.9851,2188.274,356.324,27.4,
1544,1,SBT2050,2,3,,2,10988,4.15002,0.7669,2252.935,356.324,26.7,
1544,1,SBT2050,2,3,,2,11256,4.15004,0.6158,2304.029,356.324,26.2,
1544,1,SBT2050,2,3,,2,11524,4.15012,0.5057,2345.516,356.324,25.9,
1544,1,SBT2050,2,3,,2,11792,4.150092,0.42499,2380.029,356.324,25.7,
1544,1,SBT2050,2,3,,2,12060,4.15013,0.36517,2409.352,356.324,25.6,
1544,1,SBT2050,2,3,,2,12328,4.14989,0.31639,2434.646,356.324,25.5,
1544,1,SBT2050,2,3,,2,12596,4.15018,0.27715,2456.667,356.324,25.4,
1544,1,SBT2050,2,3,,2,12864,4.15014,0.24415,2476.017,356.324,25.4,
1544,1,SBT2050,2,3,,2,13132,4.150068,0.21678,2493.144,356.324,25.3,
1544,1,SBT2050,2,3,,2,13400,4.15,0.19606,2508.497,356.324,25.3,
1544,1,SBT2050,2,3,,2,13668,4.15001,0.17767,2522.377,356.324,25.3,
1544,1,SBT2050,2,3,,2,13936,4.150056,0.16142,2534.993,356.324,25.2,
1544,1,SBT2050,2,3,,2,14204,4.14996,0.14775,2546.508,356.324,25.2,
1544,1,SBT2050,2,3,,2,14472,4.14998,0.13569,2557.064,356.324,25.2,
1544,1,SBT2050,2,3,,2,14740,4.15001,0.12521,2566.758,356.324,25.2,
1544,1,SBT2050,2,3,,2,15008,4.15008,0.11579,2575.682,356.324,25.2,
1544,1,SBT2050,2,3,,2,15276,4.15004,0.10667,2583.937,356.324,25.2,
1544,1,SBT2050,2,3,,2,15544,4.15013,0.09899,2591.601,356.324,25.2,
1544,1,SBT2050,2,3,,2,15812,4.150104,0.09241,2598.72,356.324,25.1,
1544,1,SBT2050,2,3,,2,16080,4.1499,0.08599,2605.35,356.324,25.1,
1544,1,SBT2050,2,3,,2,16348,4.14981,0.08017,2611.535,356.324,25.1,
1544,1,SBT2050,2,3,,2,16616,4.14985,0.07521,2617.318,356.324,25.1,
1544,1,SBT2050,2,3,,2,16884,4.14987,0.07011,2622.726,356.324,25.1,
1544,1,SBT2050,2,3,,2,17152,4.14989,0.06554,2627.796,356.324,25.1,
1544,1,SBT2050,2,3,,2,17420,4.150092,0.06181,2632.561,356.324,25.1,
1544,1,SBT2050,2,3,,2,17688,4.14987,0.05865,2637.038,356.324,25.1,
1544,1,SBT2050,2,3,,2,17956,4.14994,0.05522,2641.247,356.324,25.1,
1544,1,SBT2050,2,3,,2,18224,4.15004,0.05166,2645.215,356.324,25.1,
1544,1,SBT2050,2,3,,2,18492,4.14984,0.04844,2648.949,356.324,25.1,
1544,1,SBT2050,2,3,,2,18760,4.14972,0.046268,2652.461,356.324,25.1,
1544,1,SBT2050,2,3,,2,19028,4.14992,0.043297,2655.787,356.324,25.1,
1544,1,SBT2050,2,3,,2,19296,4.1502,0.04079,2658.935,356.324,25.1,
1544,1,SBT2050,2,3,,2,19564,4.14971,0.03937,2661.912,356.324,25.1,
1544,1,SBT2050,2,3,,2,19832,4.15015,0.036627,2664.718,356.324,25.1,
1544,1,SBT2050,2,3,,2,20100,4.15003,0.035183,2667.377,356.324,25,
1544,1,SBT2050,2,3,,2,20368,4.15002,0.032902,2669.909,356.324,25.1,
1544,1,SBT2050,2,3,,2,20636,4.15002,0.031188,2672.297,356.324,25.1,
1544,1,SBT2050,2,3,,2,20904,4.14992,0.029927,2674.566,356.324,25.1,
1544,1,SBT2050,2,3,,2,21172,4.15018,0.027696,2676.713,356.324,25.1,
1544,1,SBT2050,2,3,,2,21440,4.14992,0.026807,2678.758,356.324,25,
1544,1,SBT2050,2,3,,2,21708,4.14989,0.025838,2680.703,356.324,25.1,
1544,1,SBT2050,2,3,,2,21976,4.14995,0.024189,2682.566,356.324,25,
1544,1,SBT2050,2,3,,2,22244,4.14996,0.023347,2684.335,356.324,25,
1544,1,SBT2050,2,3,,2,22512,4.14964,0.022081,2686.024,356.324,25,
1544,1,SBT2050,2,3,,2,22780,4.1502,0.020965,2687.629,356.324,25.1,
1544,1,SBT2050,2,3,,2,23048,4.15003,0.020146,2689.162,356.324,25,
1544,1,SBT2050,2,3,,2,23316,4.15015,0.01941,2690.635,356.324,25,
1544,1,SBT2050,2,3,,2,23584,4.14997,0.018297,2692.044,356.324,25,
1544,1,SBT2050,2,3,,2,23852,4.149746,0.018102,2693.4,356.324,25,
1544,1,SBT2050,2,3,,2,24120,4.15002,0.017053,2694.686,356.324,25,
1544,1,SBT2050,2,3,,2,24388,4.14995,0.016042,2695.93,356.324,25,
1544,1,SBT2050,2,3,,2,24656,4.15018,0.01541,2697.121,356.324,25,
1544,1,SBT2050,2,3,,2,24924,4.15022,0.015386,2698.262,356.324,25,
1544,1,SBT2050,2,3,,2,25192,4.15008,0.014639,2699.362,356.324,25,
1544,1,SBT2050,2,3,,2,25460,4.15004,0.013822,2700.417,356.324,25,
1544,1,SBT2050,2,3,,2,25728,4.150068,0.013442,2701.434,356.324,25,
1544,1,SBT2050,2,3,,2,25996,4.14998,0.01319,2702.419,356.324,25,
1544,1,SBT2050,2,3,,2,26264,4.150056,0.012287,2703.37,356.324,25,
1544,1,SBT2050,2,3,,2,26532,4.15015,0.01177,2704.283,356.324,25,
1544,1,SBT2050,2,3,,2,26800,4.14988,0.012349,2705.167,356.324,25,
1544,1,SBT2050,2,3,,2,27068,4.14996,0.011499,2706.019,356.324,25,
1544,1,SBT2050,2,3,,2,27336,4.150056,0.011049,2706.833,356.324,25,
1544,1,SBT2050,2,3,,3,27603,4.14835,0,2707.488,356.324,25,
1544,1,SBT2050,2,3,,3,27871,4.14655,0,2707.488,356.324,25,
1544,1,SBT2050,2,3,,3,28139,4.14563,0,2707.488,356.324,25,
1544,1,SBT2050,2,3,,3,28407,4.14526,0,2707.488,356.324,25,
1544,1,SBT2050,2,3,,3,28675,4.14444,0,2707.488,356.324,25,
1544,1,SBT2050,2,3,,3,28943,4.144272,0,2707.488,356.324,25,
1544,1,SBT2050,2,3,,3,29211,4.143976,0,2707.488,356.324,25,
1544,1,SBT2050,2,3,,4,29478,3.73355,-2.9359,2707.488,457.049,26.8,
1544,1,SBT2050,2,3,,4,29746,3.69154,-2.9359,2707.488,675.615,29.2,
1544,1,SBT2050,2,3,,4,30014,3.63203,-2.9362,2707.488,894.18,29.7,
1544,1,SBT2050,2,3,,4,30282,3.5589,-2.9356,2707.488,1112.746,29.7,
1544,1,SBT2050,2,3,,4,30550,3.48183,-2.9364,2707.488,1331.312,29.8,
1544,1,SBT2050,2,3,,4,30818,3.40271,-2.9362,2707.488,1549.878,29.9,
1544,1,SBT2050,2,3,,4,31086,3.32281,-2.9362,2707.488,1768.444,30.1,
1544,1,SBT2050,2,3,,4,31354,3.23559,-2.9362,2707.488,1987.01,30.5,
1544,1,SBT2050,2,3,,4,31622,3.126675,-2.9359,2707.488,2205.576,31.2,
1544,1,SBT2050,2,3,,4,31890,2.96696,-2.9359,2707.488,2424.142,32.4,
1544,1,SBT2050,2,3,,4,32158,2.644782,-2.9362,2707.488,2642.708,34.7,
1544,1,SBT2050,2,3,,4,32426,2.49969,-1.2488,2707.488,2798.279,35.2,
1544,1,SBT2050,2,3,,4,32694,2.49995,-0.5872,2707.488,2861.803,31.3,
1544,1,SBT2050,2,3,,4,32962,2.499965,-0.37986,2707.488,2896.434,28.7,
1544,1,SBT2050,2,3,,4,33230,2.4998,-0.29451,2707.488,2921.153,27.5,
1544,1,SBT2050,2,3,,4,33498,2.499977,-0.24531,2707.488,2941.118,26.8,
1544,1,SBT2050,2,3,,4,33766,2.50007,-0.21045,2707.488,2958.015,26.4,
1544,1,SBT2050,2,3,,4,34034,2.49993,-0.18232,2707.488,2972.6,26.2,
1544,1,SBT2050,2,3,,4,34302,2.49985,-0.15758,2707.488,2985.253,26,
1544,1,SBT2050,2,3,,4,34570,2.49989,-0.13466,2707.488,2996.126,25.8,
1544,1,SBT2050,2,3,,4,34838,2.50022,-0.11455,2707.488,3005.378,25.7,
1544,1,SBT2050,2,3,,4,35106,2.5001,-0.09746,2707.488,3013.254,25.6,
1544,1,SBT2050,2,3,,4,35374,2.49989,-0.08253,2707.488,3019.942,25.5,
1544,1,SBT2050,2,3,,4,35642,2.4998,-0.06994,2707.488,3025.612,25.5,
1544,1,SBT2050,2,3,,4,35910,2.50001,-0.05977,2707.488,3030.434,25.4,
1544,1,SBT2050,2,3,,4,36178,2.49993,-0.05189,2707.488,3034.588,25.3,
1544,1,SBT2050,2,3,,4,36446,2.5,-0.04496,2707.488,3038.192,25.3,
1544,1,SBT2050,2,3,,4,36714,2.49993,-0.039034,2707.488,3041.318,25.3,
1544,1,SBT2050,2,3,,4,36982,2.49991,-0.033647,2707.488,3044.024,25.2,
1544,1,SBT2050,2,3,,4,37250,2.49995,-0.029164,2707.488,3046.357,25.2,
1544,1,SBT2050,2,3,,4,37518,2.49981,-0.024762,2707.488,3048.357,25.2,
1544,1,SBT2050,2,3,,4,37786,2.50004,-0.02149,2707.488,3050.072,25.2,
1544,1,SBT2050,2,3,,4,38054,2.50002,-0.018617,2707.488,3051.558,25.1,
1544,1,SBT2050,2,3,,4,38322,2.50008,-0.016433,2707.488,3052.857,25.1,
1544,1,SBT2050,2,3,,4,38590,2.50004,-0.014432,2707.488,3053.999,25.1,
1544,1,SBT2050,2,3,,4,38858,2.499989,-0.012788,2707.488,3055.012,25.1,
1544,1,SBT2050,2,3,,4,39126,2.5001,-0.011268,2707.488,3055.912,25.1,
1544,1,SBT2050,2,3,,5,39393,2.50867,0,2707.488,3056.69,25.1,
1544,1,SBT2050,2,3,,5,39661,2.62444,0,2707.488,3056.69,25.1,
1544,1,SBT2050,2,3,,5,39929,2.68694,0,2707.488,3056.69,25.1,
1544,1,SBT2050,2,3,,5,40197,2.72486,0,2707.488,3056.69,25.1,
1544,1,SBT2050,2,3,,5,40465,2.74957,0,2707.488,3056.69,25,
1544,1,SBT2050,2,3,,5,40733,2.76743,0,2707.488,3056.69,25,
1544,1,SBT2050,2,3,,5,41001,2.780421,0,2707.488,3056.69,25,
1544,1,SBT2050,2,3,,5,41185.662,2.787274,-9.9E-05,2707.488,3056.69,,

File: Test1549.csv
Request Year:,2018,,,,,,,,,,,,
Test:,1549,,,,,,,,,,,,
Test Description:,,,,,,,,,,,,,
TestRegime Name:,Aging_test caseB_1,,,,,,,,,,,,
TestRegime Suffix:,SHP_LC,,,,,,,,,,,,
TestRegime CellSize:,18650,,,,,,,,,,,,
TestRegime Version:,3,,,,,,,,,,,,
Number Of Cells:,1,,,,,,,,,,,,
LotID:,,,,,,,,,,,,,
Lot Description:,,,,,,,,,,,,,
Date Made:,1/21/2003 12:00 AM,,,,,,,,,,,,
Origin:,Other,,,,,,,,,,,,
Requestor:,Admin,,,,,,,,,,,,
Product ID:,Default product,,,,,,,,,,,,
Storage Temp:,R.T./AMB,,,,,,,,,,,,
Storage Delay:,0 days,,,,,,,,,,,,
Test Temp:,R.T./AMB,,,,,,,,,,,,
Start Time:,4/25/2018 2:23 AM,,,,,,,,,,,,
End Time:,4/25/2018 3:39 AM,,,,,,,,,,,,
Operator Instructions:,,,,,,,,,,,,,
Test,Cell,Rack,Shelf,Position,Cell ID,Step,Total Time (Seconds),Voltage (V),Current (A),Charge Capacity (mAh),Discharge Capacity (mAh),Trs (Â°C),
1549,1,SBT2050,2,3,,0,0.1,3.37898,0,0,0,,
1549,1,SBT2050,2,3,,0,23.9,3.3792,0,0,0,,
1549,1,SBT2050,2,3,,0,47.7,3.37922,0,0,0,,
1549,1,SBT2050,2,3,,0,71.5,3.379304,0,0,0,,
1549,1,SBT2050,2,3,,0,95.3,3.3792,0,0,0,,
1549,1,SBT2050,2,3,,0,119.1,3.37943,0,0,0,,
1549,1,SBT2050,2,3,,0,142.9,3.37936,0,0,0,,
1549,1,SBT2050,2,3,,0,166.7,3.379642,0,0,0,,
1549,1,SBT2050,2,3,,0,190.5,3.37948,0,0,0,,
1549,1,SBT2050,2,3,,0,214.3,3.37964,0,0,0,,
1549,1,SBT2050,2,3,,0,238.1,3.37964,0,0,0,,
1549,1,SBT2050,2,3,,0,261.9,3.37984,0,0,0,,
1549,1,SBT2050,2,3,,0,285.7,3.37979,0,0,0,,
1549,1,SBT2050,2,3,,0,309.5,3.37983,0,0,0,,
1549,1,SBT2050,2,3,,0,333.3,3.37994,0,0,0,,
1549,1,SBT2050,2,3,,0,357.1,3.37977,0,0,0,,
1549,1,SBT2050,2,3,,0,380.9,3.37999,0,0,0,,
1549,1,SBT2050,2,3,,0,404.7,3.38019,0,0,0,,
1549,1,SBT2050,2,3,,0,428.5,3.38031,0,0,0,,
1549,1,SBT2050,2,3,,0,452.3,3.3802,0,0,0,,
1549,1,SBT2050,2,3,,0,476.1,3.38018,0,0,0,,
1549,1,SBT2050,2,3,,0,499.9,3.380308,0,0,0,,
1549,1,SBT2050,2,3,,0,523.7,3.38034,0,0,0,,
1549,1,SBT2050,2,3,,0,547.5,3.380132,0,0,0,,
1549,1,SBT2050,2,3,,0,571.3,3.380438,0,0,0,,
1549,1,SBT2050,2,3,,0,595.1,3.380512,0,0,0,,
1549,1,SBT2050,2,3,,0,618.9,3.38058,0,0,0,,
1549,1,SBT2050,2,3,,0,642.7,3.380628,0,0,0,,
1549,1,SBT2050,2,3,,0,666.5,3.38086,0,0,0,,
1549,1,SBT2050,2,3,,0,690.3,3.38064,0,0,0,,
1549,1,SBT2050,2,3,,0,714.1,3.38081,0,0,0,,
1549,1,SBT2050,2,3,,0,737.9,3.38067,0,0,0,,
1549,1,SBT2050,2,3,,0,761.7,3.381064,0,0,0,,
1549,1,SBT2050,2,3,,0,785.5,3.380882,0,0,0,,
1549,1,SBT2050,2,3,,0,809.3,3.38092,0,0,0,,
1549,1,SBT2050,2,3,,0,833.1,3.38097,0,0,0,,
1549,1,SBT2050,2,3,,0,856.9,3.38138,0,0,0,,
1549,1,SBT2050,2,3,,0,880.7,3.38111,0,0,0,,
1549,1,SBT2050,2,3,,0,904.5,3.38099,0,0,0,,
1549,1,SBT2050,2,3,,0,928.3,3.38134,0,0,0,,
1549,1,SBT2050,2,3,,0,952.1,3.38128,0,0,0,,
1549,1,SBT2050,2,3,,0,975.9,3.38148,0,0,0,,
1549,1,SBT2050,2,3,,0,999.7,3.381326,0,0,0,,
1549,1,SBT2050,2,3,,0,1023.5,3.38161,0,0,0,,
1549,1,SBT2050,2,3,,0,1047.3,3.381662,0,0,0,,
1549,1,SBT2050,2,3,,0,1071.1,3.38108,0,0,0,,
1549,1,SBT2050,2,3,,0,1094.9,3.38143,0,0,0,,
1549,1,SBT2050,2,3,,0,1118.7,3.381652,0,0,0,,
1549,1,SBT2050,2,3,,0,1142.5,3.3819,0,0,0,,
1549,1,SBT2050,2,3,,0,1166.3,3.38188,0,0,0,,
1549,1,SBT2050,2,3,,0,1190.1,3.38172,0,0,0,,
1549,1,SBT2050,2,3,,0,1213.9,3.38172,0,0,0,,
1549,1,SBT2050,2,3,,0,1237.7,3.38189,0,0,0,,
1549,1,SBT2050,2,3,,0,1261.5,3.38217,0,0,0,,
1549,1,SBT2050,2,3,,0,1285.3,3.3821,0,0,0,,
1549,1,SBT2050,2,3,,0,1309.1,3.38221,0,0,0,,
1549,1,SBT2050,2,3,,0,1332.9,3.38208,0,0,0,,
1549,1,SBT2050,2,3,,0,1356.7,3.38206,0,0,0,,
1549,1,SBT2050,2,3,,0,1380.5,3.38221,0,0,0,,
1549,1,SBT2050,2,3,,0,1404.3,3.38209,0,0,0,,
1549,1,SBT2050,2,3,,0,1428.1,3.38217,0,0,0,,
1549,1,SBT2050,2,3,,0,1451.9,3.3824,0,0,0,,
1549,1,SBT2050,2,3,,0,1475.7,3.38236,0,0,0,,
1549,1,SBT2050,2,3,,0,1499.5,3.38259,0,0,0,,
1549,1,SBT2050,2,3,,0,1523.3,3.38255,0,0,0,,
1549,1,SBT2050,2,3,,0,1547.1,3.382446,0,0,0,,
1549,1,SBT2050,2,3,,0,1570.9,3.3824,0,0,0,,
1549,1,SBT2050,2,3,,0,1594.7,3.382384,0,0,0,,
1549,1,SBT2050,2,3,,0,1618.5,3.382452,0,0,0,,
1549,1,SBT2050,2,3,,0,1642.3,3.382758,0,0,0,,
1549,1,SBT2050,2,3,,0,1666.1,3.38249,0,0,0,,
1549,1,SBT2050,2,3,,0,1689.9,3.38282,0,0,0,,
1549,1,SBT2050,2,3,,0,1713.7,3.38278,0,0,0,,
1549,1,SBT2050,2,3,,0,1737.5,3.38268,0,0,0,,
1549,1,SBT2050,2,3,,0,1761.3,3.382544,0,0,0,,
1549,1,SBT2050,2,3,,0,1785.1,3.382762,0,0,0,,
1549,1,SBT2050,2,3,,7,1808.8,3.71874,5.185,4.68,0,,
1549,1,SBT2050,2,3,,7,1832.3,4.030562,8.542,58.18,0,,
1549,1,SBT2050,2,3,,7,1855.9,4.04271,7.829,111.525,0,,
1549,1,SBT2050,2,3,,7,1879.4,4.02537,7.358,161.065,0,,
1549,1,SBT2050,2,3,,7,1902.9,4.003574,6.967,207.799,0,,
1549,1,SBT2050,2,3,,7,1926.5,3.986924,6.68,252.525,0,,
1549,1,SBT2050,2,3,,7,1950,3.97515,6.448,295.362,0,35.2,
1549,1,SBT2050,2,3,,7,1973.6,3.96785,6.258,337.001,0,,
1549,1,SBT2050,2,3,,7,1997.1,3.96399,6.1,377.371,0,,
1549,1,SBT2050,2,3,,7,2020.6,3.96324,5.977,416.765,0,,
1549,1,SBT2050,2,3,,7,2044.2,3.9643,5.857,455.503,0,,
1549,1,SBT2050,2,3,,7,2067.7,3.96598,5.728,493.295,0,,
1549,1,SBT2050,2,3,,7,2091.2,3.96914,5.627,530.32,0,,
1549,1,SBT2050,2,3,,7,2114.8,3.97335,5.517,566.865,0,,
1549,1,SBT2050,2,3,,7,2138.3,3.97743,5.406,602.54,0,,
1549,1,SBT2050,2,3,,7,2161.9,3.9816,5.296,637.67,0,,
1549,1,SBT2050,2,3,,7,2185.4,3.98626,5.191,671.927,0,,
1549,1,SBT2050,2,3,,7,2208.9,3.990428,5.08,705.469,0,,
1549,1,SBT2050,2,3,,7,2232.5,3.99449,4.965,738.361,0,,
1549,1,SBT2050,2,3,,7,2256,3.99849,4.848,770.363,0,,
1549,1,SBT2050,2,3,,7,2279.6,4.00294,4.7403,801.789,0,,
1549,1,SBT2050,2,3,,7,2303.1,4.00692,4.6177,832.283,0,,
1549,1,SBT2050,2,3,,7,2326.6,4.01143,4.5084,862.098,0,,
1549,1,SBT2050,2,3,,7,2350.2,4.01552,4.397,891.3,0,,
1549,1,SBT2050,2,3,,7,2373.7,4.01958,4.2911,919.644,0,,
1549,1,SBT2050,2,3,,7,2397.2,4.02396,4.1915,947.311,0,,
1549,1,SBT2050,2,3,,7,2420.8,4.03008,4.1246,974.563,0,,
1549,1,SBT2050,2,3,,7,2444.3,4.03674,4.0572,1001.28,0,,
1549,1,SBT2050,2,3,,7,2467.9,4.04295,3.9896,1027.654,0,,
1549,1,SBT2050,2,3,,7,2491.4,4.04935,3.9237,1053.484,0,,
1549,1,SBT2050,2,3,,7,2514.9,4.05583,3.8564,1078.902,0,,
1549,1,SBT2050,2,3,,7,2538.5,4.06173,3.7902,1103.967,0,,
1549,1,SBT2050,2,3,,7,2562,4.06746,3.7228,1128.496,0,35.6,
1549,1,SBT2050,2,3,,7,2585.6,4.07322,3.6565,1152.671,0,,
1549,1,SBT2050,2,3,,7,2609.1,4.07909,3.5925,1176.354,0,,
1549,1,SBT2050,2,3,,7,2632.6,4.08432,3.5299,1199.613,0,,
1549,1,SBT2050,2,3,,7,2656.2,4.089642,3.4664,1222.554,0,,
1549,1,SBT2050,2,3,,7,2679.7,4.09486,3.4036,1244.969,0,,
1549,1,SBT2050,2,3,,7,2703.2,4.09893,3.3234,1266.938,0,,
1549,1,SBT2050,2,3,,7,2726.8,4.1041,3.2704,1288.561,0,,
1549,1,SBT2050,2,3,,7,2750.3,4.10815,3.2009,1309.64,0,,
1549,1,SBT2050,2,3,,7,2773.9,4.1122,3.1313,1330.397,0,,
1549,1,SBT2050,2,3,,7,2797.4,4.11547,3.0576,1350.607,0,,
1549,1,SBT2050,2,3,,7,2820.9,4.1193,2.9896,1370.338,0,,
1549,1,SBT2050,2,3,,7,2844.5,4.122794,2.9238,1389.722,0,,
1549,1,SBT2050,2,3,,7,2868,4.12695,2.8672,1408.64,0,,
1549,1,SBT2050,2,3,,7,2891.6,4.13143,2.8243,1427.323,0,,
1549,1,SBT2050,2,3,,7,2915.1,4.13639,2.7862,1445.622,0,,
1549,1,SBT2050,2,3,,7,2938.6,4.140922,2.7434,1463.634,0,,
1549,1,SBT2050,2,3,,7,2962.2,4.14526,2.6906,1481.418,0,,
1549,1,SBT2050,2,3,,7,2985.7,4.149746,2.6448,1498.834,0,,
1549,1,SBT2050,2,3,,7,3009.2,4.15491,2.6121,1516.011,0,,
1549,1,SBT2050,2,3,,7,3032.8,4.159316,2.568,1532.979,0,,
1549,1,SBT2050,2,3,,7,3056.3,4.1643,2.5393,1549.664,0,,
1549,1,SBT2050,2,3,,7,3079.9,4.1686,2.4929,1566.155,0,,
1549,1,SBT2050,2,3,,7,3103.4,4.17329,2.4598,1582.341,0,,
1549,1,SBT2050,2,3,,7,3126.9,4.177,2.4155,1598.237,0,,
1549,1,SBT2050,2,3,,7,3150.5,4.18118,2.3766,1613.945,0,,
1549,1,SBT2050,2,3,,7,3174,4.1859,2.3447,1629.356,0,,
1549,1,SBT2050,2,3,,7,3197.6,4.1897,2.3046,1644.579,0,,
1549,1,SBT2050,2,3,,7,3221.1,4.19398,2.2653,1659.503,0,,
1549,1,SBT2050,2,3,,7,3244.6,4.197822,2.2283,1674.188,0,,
1549,1,SBT2050,2,3,,7,3268.2,4.20202,2.1967,1688.681,0,,
1549,1,SBT2050,2,3,,7,3291.7,4.20576,2.1574,1702.895,0,,
1549,1,SBT2050,2,3,,7,3315.2,4.20997,2.1299,1716.911,0,,
1549,1,SBT2050,2,3,,7,3338.8,4.21445,2.1027,1730.787,0,,
1549,1,SBT2050,2,3,,7,3362.3,4.21803,2.0664,1744.397,0,,
1549,1,SBT2050,2,3,,7,3385.9,4.22236,2.0365,1757.853,0,,
1549,1,SBT2050,2,3,,7,3409.4,4.22588,2.0028,1771.017,0,,
1549,1,SBT2050,2,3,,7,3432.9,4.22966,1.9679,1783.987,0,,
1549,1,SBT2050,2,3,,7,3456.5,4.23354,1.9367,1796.802,0,,
1549,1,SBT2050,2,3,,7,3480,4.23717,1.9054,1809.366,0,29.7,
1549,1,SBT2050,2,3,,7,3503.6,4.24113,1.8775,1821.785,0,,
1549,1,SBT2050,2,3,,7,3527.1,4.24499,1.8509,1833.95,0,,
1549,1,SBT2050,2,3,,7,3550.6,4.24907,1.825,1845.939,0,,
1549,1,SBT2050,2,3,,7,3574.2,4.25251,1.7935,1857.802,0,,
1549,1,SBT2050,2,3,,7,3597.7,4.256124,1.763,1869.403,0,,
1549,1,SBT2050,2,3,,7,3621.2,4.259278,1.7335,1880.838,0,,
1549,1,SBT2050,2,3,,7,3644.8,4.26337,1.7129,1892.134,0,,
1549,1,SBT2050,2,3,,7,3668.3,4.26673,1.6859,1903.202,0,,
1549,1,SBT2050,2,3,,7,3691.9,4.27027,1.6564,1914.159,0,,
1549,1,SBT2050,2,3,,7,3715.4,4.27333,1.6264,1924.887,0,,
1549,1,SBT2050,2,3,,7,3738.9,4.27657,1.5994,1935.436,0,,
1549,1,SBT2050,2,3,,7,3762.5,4.28046,1.577,1945.847,0,,
1549,1,SBT2050,2,3,,7,3786,4.28402,1.5514,1956.053,0,,
1549,1,SBT2050,2,3,,7,3809.6,4.28747,1.5287,1966.167,0,,
1549,1,SBT2050,2,3,,7,3833.1,4.29128,1.4996,1976.05,0,,
1549,1,SBT2050,2,3,,7,3856.6,4.294516,1.4789,1985.757,0,,
1549,1,SBT2050,2,3,,7,3880.2,4.29784,1.4575,1995.4,0,,
1549,1,SBT2050,2,3,,7,3903.7,4.30144,1.4359,2004.827,0,,
1549,1,SBT2050,2,3,,7,3927.2,4.30417,1.4078,2014.092,0,,
1549,1,SBT2050,2,3,,7,3950.8,4.30819,1.3911,2023.26,0,,
1549,1,SBT2050,2,3,,7,3974.3,4.311482,1.3665,2032.242,0,,
1549,1,SBT2050,2,3,,7,3997.9,4.31437,1.3407,2041.134,0,,
1549,1,SBT2050,2,3,,7,4021.4,4.31832,1.3261,2049.834,0,,
1549,1,SBT2050,2,3,,7,4044.9,4.32144,1.3028,2058.396,0,,
1549,1,SBT2050,2,3,,7,4068.5,4.32546,1.287,2066.876,0,,
1549,1,SBT2050,2,3,,7,4092,4.32845,1.2598,2075.193,0,,
1549,1,SBT2050,2,3,,7,4115.6,4.332548,1.2481,2083.411,0,,
1549,1,SBT2050,2,3,,7,4139.1,4.33569,1.2248,2091.511,0,,
1549,1,SBT2050,2,3,,7,4162.6,4.33895,1.2104,2099.452,0,,
1549,1,SBT2050,2,3,,7,4186.2,4.342,1.1855,2107.324,0,,
1549,1,SBT2050,2,3,,7,4209.7,4.34587,1.1736,2115.02,0,,
1549,1,SBT2050,2,3,,7,4233.251,4.35,1.1624,2122.663,0,,
1549,1,SBT2050,2,3,,7,4256.8,4.35263,1.1381,2130.177,0,,
1549,1,SBT2050,2,3,,7,4280.3,4.3566,1.1268,2137.567,0,,
1549,1,SBT2050,2,3,,7,4303.9,4.36056,1.1163,2144.919,0,,
1549,1,SBT2050,2,3,,7,4327.4,4.36304,1.0912,2152.114,0,,
1549,1,SBT2050,2,3,,7,4350.9,4.36683,1.0812,2159.205,0,,
1549,1,SBT2050,2,3,,7,4374.5,4.36978,1.0583,2166.234,0,,
1549,1,SBT2050,2,3,,7,4398,4.37351,1.0473,2173.103,0,,
1549,1,SBT2050,2,3,,7,4421.6,4.377736,1.0374,2179.936,0,,
1549,1,SBT2050,2,3,,7,4445.1,4.38045,1.0151,2186.656,0,,
1549,1,SBT2050,2,3,,7,4468.6,4.384042,1.0043,2193.245,0,,
1549,1,SBT2050,2,3,,7,4492.2,4.38797,0.9944,2199.797,0,,
1549,1,SBT2050,2,3,,7,4515.7,4.39192,0.9843,2206.256,0,,
1549,1,SBT2050,2,3,,7,4539.3,4.39562,0.9708,2212.663,0,,
1549,1,SBT2050,2,3,,7,4562.8,4.39858,0.9527,2218.923,0,,
1549,1,SBT2050,2,3,,7,4569.894,4.40003,0.9497,2220.798,0,,