Folder: OR-RG_ExpRes/ORRG (part 11)

File: Test1578.csv
Request Year:,2018,,,,,,,,,,,,
Test:,1578,,,,,,,,,,,,
Test Description:,,,,,,,,,,,,,
TestRegime Name:,Aging_test caseB_1,,,,,,,,,,,,
TestRegime Suffix:,SHP_LC,,,,,,,,,,,,
TestRegime CellSize:,18650,,,,,,,,,,,,
TestRegime Version:,3,,,,,,,,,,,,
Number Of Cells:,1,,,,,,,,,,,,
LotID:,,,,,,,,,,,,,
Lot Description:,,,,,,,,,,,,,
Date Made:,1/21/2003 12:00 AM,,,,,,,,,,,,
Origin:,Other,,,,,,,,,,,,
Requestor:,Admin,,,,,,,,,,,,
Product ID:,Default product,,,,,,,,,,,,
Storage Temp:,R.T./AMB,,,,,,,,,,,,
Storage Delay:,0 days,,,,,,,,,,,,
Test Temp:,R.T./AMB,,,,,,,,,,,,
Start Time:,4/27/2018 10:53 PM,,,,,,,,,,,,
End Time:,4/28/2018 12:10 AM,,,,,,,,,,,,
Operator Instructions:,,,,,,,,,,,,,
Test,Cell,Rack,Shelf,Position,Cell ID,Step,Total Time (Seconds),Voltage (V),Current (A),Charge Capacity (mAh),Discharge Capacity (mAh),Trs (Â°C),
1578,1,SBT2050,2,3,,0,0.1,3.33528,0,0,0,,
1578,1,SBT2050,2,3,,0,24.2,3.33526,0,0,0,,
1578,1,SBT2050,2,3,,0,48.3,3.33549,0,0,0,,
1578,1,SBT2050,2,3,,0,72.4,3.33525,0,0,0,,
1578,1,SBT2050,2,3,,0,96.5,3.33541,0,0,0,,
1578,1,SBT2050,2,3,,0,120.6,3.33558,0,0,0,,
1578,1,SBT2050,2,3,,0,144.7,3.33588,0,0,0,,
1578,1,SBT2050,2,3,,0,168.8,3.33545,0,0,0,,
1578,1,SBT2050,2,3,,0,192.9,3.33571,0,0,0,,
1578,1,SBT2050,2,3,,0,217,3.33569,0,0,0,,
1578,1,SBT2050,2,3,,0,241.1,3.33593,0,0,0,,
1578,1,SBT2050,2,3,,0,265.2,3.33602,0,0,0,,
1578,1,SBT2050,2,3,,0,289.3,3.335901,0,0,0,,
1578,1,SBT2050,2,3,,0,313.4,3.33583,0,0,0,,
1578,1,SBT2050,2,3,,0,337.5,3.33573,0,0,0,,
1578,1,SBT2050,2,3,,0,361.6,3.33604,0,0,0,,
1578,1,SBT2050,2,3,,0,385.7,3.33616,0,0,0,,
1578,1,SBT2050,2,3,,0,409.8,3.33609,0,0,0,,
1578,1,SBT2050,2,3,,0,433.9,3.336244,0,0,0,,
1578,1,SBT2050,2,3,,0,458,3.33607,0,0,0,,
1578,1,SBT2050,2,3,,0,482.1,3.336231,0,0,0,,
1578,1,SBT2050,2,3,,0,506.2,3.33618,0,0,0,,
1578,1,SBT2050,2,3,,0,530.3,3.33625,0,0,0,,
1578,1,SBT2050,2,3,,0,554.4,3.33631,0,0,0,,
1578,1,SBT2050,2,3,,0,578.5,3.33673,0,0,0,,
1578,1,SBT2050,2,3,,0,602.6,3.33628,0,0,0,,
1578,1,SBT2050,2,3,,0,626.7,3.336518,0,0,0,,
1578,1,SBT2050,2,3,,0,650.8,3.33664,0,0,0,,
1578,1,SBT2050,2,3,,0,674.9,3.33665,0,0,0,,
1578,1,SBT2050,2,3,,0,699,3.33667,0,0,0,,
1578,1,SBT2050,2,3,,0,723.1,3.336625,0,0,0,,
1578,1,SBT2050,2,3,,0,747.2,3.33669,0,0,0,,
1578,1,SBT2050,2,3,,0,771.3,3.33681,0,0,0,,
1578,1,SBT2050,2,3,,0,795.4,3.33651,0,0,0,,
1578,1,SBT2050,2,3,,0,819.5,3.33657,0,0,0,,
1578,1,SBT2050,2,3,,0,843.6,3.33684,0,0,0,,
1578,1,SBT2050,2,3,,0,867.7,3.33654,0,0,0,,
1578,1,SBT2050,2,3,,0,891.8,3.33652,0,0,0,,
1578,1,SBT2050,2,3,,0,915.9,3.33693,0,0,0,,
1578,1,SBT2050,2,3,,0,940,3.33697,0,0,0,,
1578,1,SBT2050,2,3,,0,964.1,3.336703,0,0,0,,
1578,1,SBT2050,2,3,,0,988.2,3.336873,0,0,0,,
1578,1,SBT2050,2,3,,0,1012.3,3.33697,0,0,0,,
1578,1,SBT2050,2,3,,0,1036.4,3.33697,0,0,0,,
1578,1,SBT2050,2,3,,0,1060.5,3.33708,0,0,0,,
1578,1,SBT2050,2,3,,0,1084.6,3.33712,0,0,0,,
1578,1,SBT2050,2,3,,0,1108.7,3.33723,0,0,0,,
1578,1,SBT2050,2,3,,0,1132.8,3.33723,0,0,0,,
1578,1,SBT2050,2,3,,0,1156.9,3.33727,0,0,0,,
1578,1,SBT2050,2,3,,0,1181,3.33708,0,0,0,,
1578,1,SBT2050,2,3,,0,1205.1,3.33729,0,0,0,,
1578,1,SBT2050,2,3,,0,1229.2,3.33721,0,0,0,,
1578,1,SBT2050,2,3,,0,1253.3,3.33728,0,0,0,,
1578,1,SBT2050,2,3,,0,1277.4,3.33728,0,0,0,,
1578,1,SBT2050,2,3,,0,1301.5,3.33699,0,0,0,,
1578,1,SBT2050,2,3,,0,1325.6,3.33708,0,0,0,,
1578,1,SBT2050,2,3,,0,1349.7,3.33713,0,0,0,,
1578,1,SBT2050,2,3,,0,1373.8,3.33733,0,0,0,,
1578,1,SBT2050,2,3,,0,1397.9,3.337503,0,0,0,,
1578,1,SBT2050,2,3,,0,1422,3.337446,0,0,0,,
1578,1,SBT2050,2,3,,0,1446.1,3.33741,0,0,0,,
1578,1,SBT2050,2,3,,0,1470.2,3.33773,0,0,0,,
1578,1,SBT2050,2,3,,0,1494.3,3.33777,0,0,0,,
1578,1,SBT2050,2,3,,0,1518.4,3.33784,0,0,0,,
1578,1,SBT2050,2,3,,0,1542.5,3.33756,0,0,0,,
1578,1,SBT2050,2,3,,0,1566.6,3.33768,0,0,0,,
1578,1,SBT2050,2,3,,0,1590.7,3.33767,0,0,0,,
1578,1,SBT2050,2,3,,0,1614.8,3.33775,0,0,0,,
1578,1,SBT2050,2,3,,0,1638.9,3.33777,0,0,0,,
1578,1,SBT2050,2,3,,0,1663,3.33751,0,0,0,,
1578,1,SBT2050,2,3,,0,1687.1,3.33757,0,0,0,,
1578,1,SBT2050,2,3,,0,1711.2,3.33764,0,0,0,,
1578,1,SBT2050,2,3,,0,1735.3,3.33764,0,0,0,,
1578,1,SBT2050,2,3,,0,1759.4,3.337514,0,0,0,,
1578,1,SBT2050,2,3,,0,1783.5,3.33771,0,0,0,,
1578,1,SBT2050,2,3,,7,1807.5,3.63501,3.96,3.117,0,,
1578,1,SBT2050,2,3,,7,1831.3,4.00025,8.671,55.993,0,,
1578,1,SBT2050,2,3,,7,1855.2,4.02038,7.87,110.274,0,,
1578,1,SBT2050,2,3,,7,1879,4.0116,7.373,160.625,0,31.1,
1578,1,SBT2050,2,3,,7,1902.8,3.99256,6.993,208.099,0,,
1578,1,SBT2050,2,3,,7,1926.7,3.97677,6.711,253.55,0,,
1578,1,SBT2050,2,3,,7,1950.5,3.96452,6.489,297.116,0,,
1578,1,SBT2050,2,3,,7,1974.3,3.95674,6.314,339.413,0,,
1578,1,SBT2050,2,3,,7,1998.2,3.95297,6.169,380.851,0,,
1578,1,SBT2050,2,3,,7,2022,3.9508,6.035,421.189,0,,
1578,1,SBT2050,2,3,,7,2045.8,3.951044,5.92,460.724,0,,
1578,1,SBT2050,2,3,,7,2069.7,3.95352,5.814,499.651,0,,
1578,1,SBT2050,2,3,,7,2093.5,3.95584,5.701,537.727,0,,
1578,1,SBT2050,2,3,,7,2117.4,3.9593,5.586,575.186,0,,
1578,1,SBT2050,2,3,,7,2141.2,3.96312,5.475,611.704,0,,
1578,1,SBT2050,2,3,,7,2165,3.96729,5.353,647.514,0,,
1578,1,SBT2050,2,3,,7,2188.9,3.9719,5.236,682.696,0,,
1578,1,SBT2050,2,3,,7,2212.7,3.97636,5.121,716.897,0,,
1578,1,SBT2050,2,3,,7,2236.5,3.980896,5.001,750.358,0,,
1578,1,SBT2050,2,3,,7,2260.4,3.98581,4.887,783.179,0,,
1578,1,SBT2050,2,3,,7,2284.2,3.99033,4.776,815.123,0,,
1578,1,SBT2050,2,3,,7,2308,3.99518,4.6634,846.314,0,,
1578,1,SBT2050,2,3,,7,2331.9,3.99939,4.5452,876.89,0,,
1578,1,SBT2050,2,3,,7,2355.7,4.00414,4.4342,906.572,0,,
1578,1,SBT2050,2,3,,7,2379.5,4.008322,4.3201,935.492,0,,
1578,1,SBT2050,2,3,,7,2403.4,4.01243,4.211,963.783,0,,
1578,1,SBT2050,2,3,,7,2427.2,4.01847,4.141,991.375,0,,
1578,1,SBT2050,2,3,,7,2451,4.02533,4.0803,1018.535,0,,
1578,1,SBT2050,2,3,,7,2474.9,4.031848,4.0037,1045.356,0,,
1578,1,SBT2050,2,3,,7,2498.7,4.03844,3.9416,1071.619,0,,
1578,1,SBT2050,2,3,,7,2522.6,4.045064,3.8727,1097.562,0,,
1578,1,SBT2050,2,3,,7,2546.4,4.05141,3.8066,1122.946,0,,
1578,1,SBT2050,2,3,,7,2570.2,4.0574,3.7409,1147.902,0,,
1578,1,SBT2050,2,3,,7,2594.1,4.06345,3.6734,1172.525,0,,
1578,1,SBT2050,2,3,,7,2617.9,4.06979,3.6116,1196.647,0,,
1578,1,SBT2050,2,3,,7,2641.7,4.07511,3.5451,1220.318,0,,
1578,1,SBT2050,2,3,,7,2665.6,4.08138,3.4911,1243.683,0,,
1578,1,SBT2050,2,3,,7,2689.4,4.08674,3.4225,1266.55,0,,
1578,1,SBT2050,2,3,,7,2713.2,4.09195,3.3548,1288.962,0,,
1578,1,SBT2050,2,3,,7,2737.1,4.09709,3.2924,1311.025,0,,
1578,1,SBT2050,2,3,,7,2760.9,4.10148,3.2213,1332.596,0,,
1578,1,SBT2050,2,3,,7,2784.7,4.10633,3.1681,1353.715,0,,
1578,1,SBT2050,2,3,,7,2808.6,4.110816,3.0985,1374.488,0,,
1578,1,SBT2050,2,3,,7,2832.4,4.11498,3.0371,1394.768,0,,
1578,1,SBT2050,2,3,,7,2856.2,4.11909,2.9777,1414.617,0,,
1578,1,SBT2050,2,3,,7,2880.1,4.12308,2.9085,1434.152,0,,
1578,1,SBT2050,2,3,,7,2903.9,4.12798,2.8695,1453.247,0,,
1578,1,SBT2050,2,3,,7,2927.8,4.13228,2.8101,1472.091,0,,
1578,1,SBT2050,2,3,,7,2951.6,4.137726,2.7746,1490.532,0,,
1578,1,SBT2050,2,3,,7,2975.4,4.1422,2.7219,1508.688,0,,
1578,1,SBT2050,2,3,,7,2999.3,4.14683,2.6755,1526.597,0,,
1578,1,SBT2050,2,3,,7,3023.1,4.152,2.6443,1544.177,0,,
1578,1,SBT2050,2,3,,7,3046.9,4.15759,2.6153,1561.517,0,,
1578,1,SBT2050,2,3,,7,3070.8,4.16186,2.5635,1578.679,0,,
1578,1,SBT2050,2,3,,7,3094.6,4.16619,2.5141,1595.478,0,,
1578,1,SBT2050,2,3,,7,3118.4,4.17101,2.482,1612.012,0,,
1578,1,SBT2050,2,3,,7,3142.3,4.17513,2.4333,1628.348,0,,
1578,1,SBT2050,2,3,,7,3166.1,4.17987,2.3988,1644.33,0,,
1578,1,SBT2050,2,3,,7,3189.9,4.18446,2.3682,1660.066,0,,
1578,1,SBT2050,2,3,,7,3213.8,4.18847,2.3203,1675.613,0,,
1578,1,SBT2050,2,3,,7,3237.6,4.192752,2.2877,1690.831,0,,
1578,1,SBT2050,2,3,,7,3261.4,4.196966,2.2503,1705.842,0,,
1578,1,SBT2050,2,3,,7,3285.3,4.20086,2.2078,1720.622,0,,
1578,1,SBT2050,2,3,,7,3309.1,4.2056,2.1771,1735.108,0,,
1578,1,SBT2050,2,3,,7,3333,4.209996,2.1461,1749.428,0,30.6,
1578,1,SBT2050,2,3,,7,3356.8,4.21385,2.1151,1763.484,0,,
1578,1,SBT2050,2,3,,7,3380.6,4.21833,2.0826,1777.339,0,,
1578,1,SBT2050,2,3,,7,3404.5,4.22248,2.0503,1791.044,0,,
1578,1,SBT2050,2,3,,7,3428.3,4.22673,2.018,1804.482,0,,
1578,1,SBT2050,2,3,,7,3452.1,4.23073,1.9859,1817.71,0,,
1578,1,SBT2050,2,3,,7,3476,4.23409,1.9427,1830.747,0,,
1578,1,SBT2050,2,3,,7,3499.8,4.23874,1.924,1843.525,0,,
1578,1,SBT2050,2,3,,7,3523.6,4.24248,1.8921,1856.123,0,,
1578,1,SBT2050,2,3,,7,3547.5,4.24643,1.8609,1868.562,0,,
1578,1,SBT2050,2,3,,7,3571.3,4.25027,1.8301,1880.749,0,,
1578,1,SBT2050,2,3,,7,3595.1,4.25423,1.7998,1892.726,0,,
1578,1,SBT2050,2,3,,7,3619,4.257686,1.7694,1904.567,0,,
1578,1,SBT2050,2,3,,7,3642.8,4.26174,1.7394,1916.17,0,,
1578,1,SBT2050,2,3,,7,3666.6,4.2663,1.722,1927.611,0,,
1578,1,SBT2050,2,3,,7,3690.5,4.26981,1.6917,1938.928,0,,
1578,1,SBT2050,2,3,,7,3714.3,4.27343,1.6619,1949.985,0,,
1578,1,SBT2050,2,3,,7,3738.141,4.27696,1.632,1960.901,0,,
1578,1,SBT2050,2,3,,7,3762,4.28029,1.6038,1971.65,0,,
1578,1,SBT2050,2,3,,7,3785.8,4.28473,1.5866,1982.191,0,,
1578,1,SBT2050,2,3,,7,3809.7,4.28823,1.5571,1992.615,0,,
1578,1,SBT2050,2,3,,7,3833.5,4.2916,1.5278,2002.812,0,,
1578,1,SBT2050,2,3,,7,3857.3,4.296292,1.5125,2012.862,0,,
1578,1,SBT2050,2,3,,7,3881.2,4.29918,1.4836,2022.784,0,,
1578,1,SBT2050,2,3,,7,3905,4.302266,1.4551,2032.51,0,,
1578,1,SBT2050,2,3,,7,3928.8,4.30666,1.4411,2042.081,0,,
1578,1,SBT2050,2,3,,7,3952.7,4.30971,1.4131,2051.55,0,,
1578,1,SBT2050,2,3,,7,3976.5,4.31393,1.3986,2060.841,0,,
1578,1,SBT2050,2,3,,7,4000.3,4.316538,1.3706,2070.001,0,,
1578,1,SBT2050,2,3,,7,4024.2,4.32117,1.3569,2079.054,0,,
1578,1,SBT2050,2,3,,7,4048,4.32395,1.3295,2087.933,0,,
1578,1,SBT2050,2,3,,7,4071.8,4.32817,1.3168,2096.678,0,,
1578,1,SBT2050,2,3,,7,4095.7,4.331354,1.2922,2105.345,0,,
1578,1,SBT2050,2,3,,7,4119.5,4.335084,1.2767,2113.84,0,,
1578,1,SBT2050,2,3,,7,4143.3,4.33892,1.2638,2122.238,0,,
1578,1,SBT2050,2,3,,7,4167.2,4.34237,1.2402,2130.545,0,,
1578,1,SBT2050,2,3,,7,4191,4.34545,1.2253,2138.689,0,,
1578,1,SBT2050,2,3,,7,4214.9,4.34908,1.2114,2146.778,0,,
1578,1,SBT2050,2,3,,7,4238.7,4.35295,1.2,2154.728,0,,
1578,1,SBT2050,2,3,,7,4262.5,4.35507,1.1754,2162.57,0,,
1578,1,SBT2050,2,3,,7,4286.4,4.35845,1.1633,2170.364,0,,
1578,1,SBT2050,2,3,,7,4310.2,4.36153,1.1507,2178.013,0,,
1578,1,SBT2050,2,3,,7,4334,4.36583,1.1467,2185.611,0,,
1578,1,SBT2050,2,3,,7,4357.9,4.369018,1.1336,2193.17,0,,
1578,1,SBT2050,2,3,,7,4381.7,4.37135,1.1195,2200.608,0,,
1578,1,SBT2050,2,3,,7,4405.5,4.37399,1.1059,2207.964,0,,
1578,1,SBT2050,2,3,,7,4429.4,4.37614,1.0925,2215.265,0,,
1578,1,SBT2050,2,3,,7,4453.2,4.37873,1.0816,2222.449,0,,
1578,1,SBT2050,2,3,,7,4477,4.38118,1.0695,2229.558,0,,
1578,1,SBT2050,2,3,,7,4500.9,4.3827,1.0593,2236.614,0,,
1578,1,SBT2050,2,3,,7,4524.7,4.38464,1.0474,2243.575,0,,
1578,1,SBT2050,2,3,,7,4548.5,4.38638,1.0357,2250.461,0,,
1578,1,SBT2050,2,3,,7,4572.4,4.38783,1.0273,2257.315,0,,
1578,1,SBT2050,2,3,,7,4596.2,4.389,1.0192,2264.079,0,,
1578,1,SBT2050,2,3,,7,4620.1,4.39019,1.0116,2270.824,0,,
1578,1,SBT2050,2,3,,7,4626.688,4.389964,1.0094,2272.674,0,,

File: Test1579.csv
Request Year:,2018,,,,,,,,,,,,
Test:,1579,,,,,,,,,,,,
Test Description:,,,,,,,,,,,,,
TestRegime Name:,Dchg_1C,,,,,,,,,,,,
TestRegime Suffix:,SHP_LC,,,,,,,,,,,,
TestRegime CellSize:,18650,,,,,,,,,,,,
TestRegime Version:,1,,,,,,,,,,,,
Number Of Cells:,1,,,,,,,,,,,,
LotID:,,,,,,,,,,,,,
Lot Description:,,,,,,,,,,,,,
Date Made:,1/21/2003 12:00 AM,,,,,,,,,,,,
Origin:,Other,,,,,,,,,,,,
Requestor:,Admin,,,,,,,,,,,,
Product ID:,Default product,,,,,,,,,,,,
Storage Temp:,R.T./AMB,,,,,,,,,,,,
Storage Delay:,0 days,,,,,,,,,,,,
Test Temp:,R.T./AMB,,,,,,,,,,,,
Start Time:,4/28/2018 12:12 AM,,,,,,,,,,,,
End Time:,4/28/2018 1:02 AM,,,,,,,,,,,,
Operator Instructions:,,,,,,,,,,,,,
Test,Cell,Rack,Shelf,Position,Cell ID,Step,Total Time (Seconds),Voltage (V),Current (A),Charge Capacity (mAh),Discharge Capacity (mAh),TC1 (Â°C),
1579,1,SBT2050,2,3,,0,1,4.17219,0,0,0,28.2,
1579,1,SBT2050,2,3,,0,19,4.16768,0,0,0,28.1,
1579,1,SBT2050,2,3,,0,37,4.16384,0,0,0,28.1,
1579,1,SBT2050,2,3,,0,55,4.16058,0,0,0,28.1,
1579,1,SBT2050,2,3,,1,73,3.8968,-2.6998,0,9.749,28.1,
1579,1,SBT2050,2,3,,1,91,3.86441,-2.7,0,23.248,28.3,
1579,1,SBT2050,2,3,,1,109,3.84406,-2.6994,0,36.748,28.5,
1579,1,SBT2050,2,3,,1,127,3.82843,-2.6997,0,50.248,28.6,
1579,1,SBT2050,2,3,,1,145,3.81528,-2.7001,0,63.747,28.7,
1579,1,SBT2050,2,3,,1,163,3.80398,-2.7002,0,77.247,28.8,
1579,1,SBT2050,2,3,,1,181,3.79472,-2.7,0,90.747,28.9,
1579,1,SBT2050,2,3,,1,199,3.78641,-2.6999,0,104.247,28.9,
1579,1,SBT2050,2,3,,1,217,3.779,-2.6999,0,117.746,29,
1579,1,SBT2050,2,3,,1,235,3.77217,-2.7002,0,131.246,29.1,
1579,1,SBT2050,2,3,,1,253,3.76634,-2.6997,0,144.746,29.1,
1579,1,SBT2050,2,3,,1,271,3.76088,-2.7,0,158.245,29.2,
1579,1,SBT2050,2,3,,1,289,3.75517,-2.7001,0,171.745,29.2,
1579,1,SBT2050,2,3,,1,307,3.75034,-2.6999,0,185.245,29.2,
1579,1,SBT2050,2,3,,1,325,3.744898,-2.6999,0,198.745,29.2,
1579,1,SBT2050,2,3,,1,343,3.73995,-2.7001,0,212.244,29.3,
1579,1,SBT2050,2,3,,1,361,3.73513,-2.6998,0,225.744,29.3,
1579,1,SBT2050,2,3,,1,379,3.73014,-2.6996,0,239.244,29.3,
1579,1,SBT2050,2,3,,1,397,3.72536,-2.6995,0,252.744,29.4,
1579,1,SBT2050,2,3,,1,415,3.72049,-2.6999,0,266.244,29.4,
1579,1,SBT2050,2,3,,1,433,3.715544,-2.6999,0,279.743,29.4,
1579,1,SBT2050,2,3,,1,451,3.71086,-2.6998,0,293.243,29.4,
1579,1,SBT2050,2,3,,1,469,3.70594,-2.6997,0,306.743,29.3,
1579,1,SBT2050,2,3,,1,487,3.70091,-2.7001,0,320.242,29.3,
1579,1,SBT2050,2,3,,1,505,3.69603,-2.7001,0,333.742,29.3,
1579,1,SBT2050,2,3,,1,523,3.69065,-2.7,0,347.242,29.3,
1579,1,SBT2050,2,3,,1,541,3.68581,-2.7002,0,360.742,29.3,
1579,1,SBT2050,2,3,,1,559,3.68083,-2.7003,0,374.241,29.3,
1579,1,SBT2050,2,3,,1,577,3.67552,-2.7001,0,387.741,29.3,
1579,1,SBT2050,2,3,,1,595,3.67067,-2.6998,0,401.241,29.2,
1579,1,SBT2050,2,3,,1,613,3.66572,-2.7001,0,414.741,29.2,
1579,1,SBT2050,2,3,,1,631,3.66074,-2.7,0,428.24,29.2,
1579,1,SBT2050,2,3,,1,649,3.65559,-2.6999,0,441.74,29.2,
1579,1,SBT2050,2,3,,1,667,3.650832,-2.7001,0,455.24,29.2,
1579,1,SBT2050,2,3,,1,685,3.64608,-2.6998,0,468.739,29.1,
1579,1,SBT2050,2,3,,1,703,3.64131,-2.6997,0,482.239,29.2,
1579,1,SBT2050,2,3,,1,721,3.63645,-2.7003,0,495.739,29.1,
1579,1,SBT2050,2,3,,1,739,3.63123,-2.7,0,509.239,29.1,
1579,1,SBT2050,2,3,,1,757,3.626064,-2.6997,0,522.738,29.1,
1579,1,SBT2050,2,3,,1,775,3.62099,-2.7,0,536.238,29.1,
1579,1,SBT2050,2,3,,1,793,3.616,-2.6997,0,549.738,29.1,
1579,1,SBT2050,2,3,,1,811,3.61097,-2.7002,0,563.238,29,
1579,1,SBT2050,2,3,,1,829,3.60589,-2.6999,0,576.737,29,
1579,1,SBT2050,2,3,,1,847,3.60112,-2.6997,0,590.237,29,
1579,1,SBT2050,2,3,,1,865,3.59617,-2.6999,0,603.737,29,
1579,1,SBT2050,2,3,,1,883,3.59117,-2.7005,0,617.236,29,
1579,1,SBT2050,2,3,,1,901,3.58624,-2.6999,0,630.736,29,
1579,1,SBT2050,2,3,,1,919,3.58098,-2.7,0,644.236,29,
1579,1,SBT2050,2,3,,1,937,3.57602,-2.7,0,657.736,29,
1579,1,SBT2050,2,3,,1,955,3.57083,-2.7,0,671.235,29,
1579,1,SBT2050,2,3,,1,973,3.56588,-2.7004,0,684.735,29,
1579,1,SBT2050,2,3,,1,991,3.56081,-2.7001,0,698.235,29,
1579,1,SBT2050,2,3,,1,1009,3.55563,-2.7001,0,711.735,29,
1579,1,SBT2050,2,3,,1,1027,3.55038,-2.6997,0,725.234,29.1,
1579,1,SBT2050,2,3,,1,1045,3.54539,-2.7,0,738.734,29.1,
1579,1,SBT2050,2,3,,1,1063,3.54044,-2.6997,0,752.234,29.1,
1579,1,SBT2050,2,3,,1,1081,3.53529,-2.6999,0,765.733,29.1,
1579,1,SBT2050,2,3,,1,1099,3.53021,-2.7004,0,779.233,29.1,
1579,1,SBT2050,2,3,,1,1117,3.52539,-2.7,0,792.733,29.1,
1579,1,SBT2050,2,3,,1,1135,3.519918,-2.6997,0,806.233,29.1,
1579,1,SBT2050,2,3,,1,1153,3.51457,-2.7,0,819.732,29.1,
1579,1,SBT2050,2,3,,1,1171,3.50961,-2.7001,0,833.232,29.1,
1579,1,SBT2050,2,3,,1,1189,3.504642,-2.7,0,846.732,29.1,
1579,1,SBT2050,2,3,,1,1207,3.49962,-2.6994,0,860.231,29.1,
1579,1,SBT2050,2,3,,1,1225,3.49419,-2.6997,0,873.731,29.1,
1579,1,SBT2050,2,3,,1,1243,3.48938,-2.6995,0,887.231,29.1,
1579,1,SBT2050,2,3,,1,1261,3.4843,-2.6998,0,900.731,29.2,
1579,1,SBT2050,2,3,,1,1279,3.47912,-2.6996,0,914.23,29.1,
1579,1,SBT2050,2,3,,1,1297,3.474046,-2.7001,0,927.73,29.1,
1579,1,SBT2050,2,3,,1,1315,3.468972,-2.7001,0,941.23,29.1,
1579,1,SBT2050,2,3,,1,1333,3.464118,-2.7,0,954.729,29.1,
1579,1,SBT2050,2,3,,1,1351,3.45879,-2.6997,0,968.229,29.1,
1579,1,SBT2050,2,3,,1,1369,3.453806,-2.6995,0,981.729,29.1,
1579,1,SBT2050,2,3,,1,1387,3.4489,-2.7,0,995.229,29.2,
1579,1,SBT2050,2,3,,1,1405,3.44391,-2.7002,0,1008.728,29.1,
1579,1,SBT2050,2,3,,1,1423,3.438732,-2.7002,0,1022.228,29.2,
1579,1,SBT2050,2,3,,1,1441,3.43375,-2.6995,0,1035.728,29.1,
1579,1,SBT2050,2,3,,1,1459,3.42844,-2.7001,0,1049.228,29.2,
1579,1,SBT2050,2,3,,1,1477,3.42351,-2.7001,0,1062.727,29.2,
1579,1,SBT2050,2,3,,1,1495,3.41859,-2.7004,0,1076.227,29.2,
1579,1,SBT2050,2,3,,1,1513,3.41353,-2.6998,0,1089.727,29.2,
1579,1,SBT2050,2,3,,1,1531,3.40909,-2.6999,0,1103.226,29.2,
1579,1,SBT2050,2,3,,1,1549,3.4044,-2.7,0,1116.726,29.2,
1579,1,SBT2050,2,3,,1,1567,3.39912,-2.6997,0,1130.226,29.2,
1579,1,SBT2050,2,3,,1,1585,3.39414,-2.7,0,1143.726,29.2,
1579,1,SBT2050,2,3,,1,1603,3.388914,-2.7002,0,1157.225,29.2,
1579,1,SBT2050,2,3,,1,1621,3.38397,-2.6998,0,1170.725,29.2,
1579,1,SBT2050,2,3,,1,1639,3.37888,-2.7003,0,1184.225,29.2,
1579,1,SBT2050,2,3,,1,1657,3.37397,-2.6998,0,1197.724,29.2,
1579,1,SBT2050,2,3,,1,1675,3.36922,-2.7001,0,1211.224,29.2,
1579,1,SBT2050,2,3,,1,1693,3.363934,-2.7001,0,1224.724,29.2,
1579,1,SBT2050,2,3,,1,1711,3.35918,-2.7001,0,1238.224,29.2,
1579,1,SBT2050,2,3,,1,1729,3.35422,-2.7002,0,1251.723,29.2,
1579,1,SBT2050,2,3,,1,1747,3.348923,-2.6997,0,1265.223,29.3,
1579,1,SBT2050,2,3,,1,1765,3.34374,-2.7002,0,1278.723,29.3,
1579,1,SBT2050,2,3,,1,1783,3.3389,-2.7,0,1292.222,29.3,
1579,1,SBT2050,2,3,,1,1801,3.33406,-2.7,0,1305.722,29.3,
1579,1,SBT2050,2,3,,1,1819,3.32896,-2.7,0,1319.222,29.3,
1579,1,SBT2050,2,3,,1,1837,3.32382,-2.6998,0,1332.721,29.4,
1579,1,SBT2050,2,3,,1,1855,3.31835,-2.7,0,1346.221,29.4,
1579,1,SBT2050,2,3,,1,1873,3.31333,-2.7,0,1359.721,29.4,
1579,1,SBT2050,2,3,,1,1891,3.307886,-2.7001,0,1373.221,29.4,
1579,1,SBT2050,2,3,,1,1909,3.302511,-2.7002,0,1386.721,29.5,
1579,1,SBT2050,2,3,,1,1927,3.29732,-2.6999,0,1400.22,29.4,
1579,1,SBT2050,2,3,,1,1945,3.29219,-2.7001,0,1413.72,29.5,
1579,1,SBT2050,2,3,,1,1963,3.28672,-2.7,0,1427.22,29.5,
1579,1,SBT2050,2,3,,1,1981,3.28118,-2.6999,0,1440.72,29.5,
1579,1,SBT2050,2,3,,1,1999,3.27544,-2.6998,0,1454.219,29.5,
1579,1,SBT2050,2,3,,1,2017,3.269844,-2.7001,0,1467.719,29.6,
1579,1,SBT2050,2,3,,1,2035,3.26412,-2.6997,0,1481.219,29.6,
1579,1,SBT2050,2,3,,1,2053,3.258461,-2.7001,0,1494.718,29.6,
1579,1,SBT2050,2,3,,1,2071,3.25275,-2.6998,0,1508.218,29.7,
1579,1,SBT2050,2,3,,1,2089,3.247076,-2.6998,0,1521.718,29.7,
1579,1,SBT2050,2,3,,1,2107,3.24095,-2.6999,0,1535.217,29.7,
1579,1,SBT2050,2,3,,1,2125,3.23481,-2.7001,0,1548.717,29.8,
1579,1,SBT2050,2,3,,1,2143,3.22836,-2.7001,0,1562.217,29.8,
1579,1,SBT2050,2,3,,1,2161,3.22218,-2.7,0,1575.717,29.9,
1579,1,SBT2050,2,3,,1,2179,3.21567,-2.7003,0,1589.216,29.9,
1579,1,SBT2050,2,3,,1,2197,3.209059,-2.7,0,1602.716,29.9,
1579,1,SBT2050,2,3,,1,2215,3.20237,-2.7,0,1616.216,30,
1579,1,SBT2050,2,3,,1,2233,3.1957,-2.7003,0,1629.716,30.1,
1579,1,SBT2050,2,3,,1,2251,3.18863,-2.7003,0,1643.215,30.1,
1579,1,SBT2050,2,3,,1,2269,3.181536,-2.7001,0,1656.715,30.1,
1579,1,SBT2050,2,3,,1,2287,3.17428,-2.7,0,1670.215,30.2,
1579,1,SBT2050,2,3,,1,2305,3.16673,-2.6994,0,1683.715,30.2,
1579,1,SBT2050,2,3,,1,2323,3.15934,-2.7001,0,1697.214,30.3,
1579,1,SBT2050,2,3,,1,2341,3.15162,-2.7002,0,1710.714,30.3,
1579,1,SBT2050,2,3,,1,2359,3.14381,-2.6999,0,1724.214,30.4,
1579,1,SBT2050,2,3,,1,2377,3.13589,-2.6998,0,1737.714,30.5,
1579,1,SBT2050,2,3,,1,2395,3.12732,-2.6999,0,1751.214,30.5,
1579,1,SBT2050,2,3,,1,2413,3.11849,-2.7003,0,1764.713,30.6,
1579,1,SBT2050,2,3,,1,2431,3.10976,-2.6999,0,1778.213,30.7,
1579,1,SBT2050,2,3,,1,2449,3.10053,-2.6994,0,1791.713,30.7,
1579,1,SBT2050,2,3,,1,2467,3.090938,-2.6995,0,1805.213,30.8,
1579,1,SBT2050,2,3,,1,2485,3.08095,-2.6997,0,1818.713,30.9,
1579,1,SBT2050,2,3,,1,2503,3.07105,-2.6997,0,1832.212,30.9,
1579,1,SBT2050,2,3,,1,2521,3.060554,-2.7,0,1845.712,31,
1579,1,SBT2050,2,3,,1,2539,3.04989,-2.6998,0,1859.212,31,
1579,1,SBT2050,2,3,,1,2557,3.03916,-2.6997,0,1872.711,31.1,
1579,1,SBT2050,2,3,,1,2575,3.027633,-2.6997,0,1886.211,31.2,
1579,1,SBT2050,2,3,,1,2593,3.01587,-2.6999,0,1899.711,31.3,
1579,1,SBT2050,2,3,,1,2611,3.00364,-2.6998,0,1913.211,31.4,
1579,1,SBT2050,2,3,,1,2629,2.99076,-2.6999,0,1926.711,31.5,
1579,1,SBT2050,2,3,,1,2647,2.97747,-2.7002,0,1940.21,31.5,
1579,1,SBT2050,2,3,,1,2665,2.96341,-2.7001,0,1953.71,31.6,
1579,1,SBT2050,2,3,,1,2683,2.948662,-2.7001,0,1967.21,31.7,
1579,1,SBT2050,2,3,,1,2701,2.9331,-2.7001,0,1980.71,31.9,
1579,1,SBT2050,2,3,,1,2719,2.91712,-2.7001,0,1994.209,31.9,
1579,1,SBT2050,2,3,,1,2737,2.89978,-2.6999,0,2007.709,32,
1579,1,SBT2050,2,3,,1,2755,2.881078,-2.7001,0,2021.209,32.2,
1579,1,SBT2050,2,3,,1,2773,2.86104,-2.6998,0,2034.709,32.3,
1579,1,SBT2050,2,3,,1,2791,2.839269,-2.7004,0,2048.209,32.4,
1579,1,SBT2050,2,3,,1,2809,2.81587,-2.7002,0,2061.708,32.5,
1579,1,SBT2050,2,3,,1,2827,2.79016,-2.7001,0,2075.208,32.7,
1579,1,SBT2050,2,3,,1,2845,2.76227,-2.6996,0,2088.708,32.9,
1579,1,SBT2050,2,3,,1,2863,2.73183,-2.6996,0,2102.208,33,
1579,1,SBT2050,2,3,,1,2881,2.69821,-2.6995,0,2115.707,33.2,
1579,1,SBT2050,2,3,,1,2899,2.6604,-2.6997,0,2129.207,33.4,
1579,1,SBT2050,2,3,,1,2917,2.6174,-2.7002,0,2142.707,33.7,
1579,1,SBT2050,2,3,,1,2935,2.568301,-2.7001,0,2156.207,33.9,
1579,1,SBT2050,2,3,,1,2953,2.51138,-2.7001,0,2169.707,34.2,
1579,1,SBT2050,2,3,,2,2970,3.153929,0,0,2172.133,34.3,
1579,1,SBT2050,2,3,,2,2988,3.22638,0,0,2172.133,33.8,
1579,1,SBT2050,2,3,,2,3006,3.26122,0,0,2172.133,33.3,
1579,1,SBT2050,2,3,,2,3016.235,3.27443,-9.9E-05,0,2172.133,,